timestamp,ax,ay,az,gx,gy,gz,mx,my,mz,dist
1787131453.9528048,-3.39,4.166,9.522,0.263,-0.049,-0.066,-5.85,-24.75,-26.1,739.0
1787131453.9528203,-3.06,3.977,9.488,0.188,0.028,-0.062,-7.05,-23.1,-25.65,739.0
1787131453.9528272,-3.287,4.156,9.431,0.111,0.024,-0.063,-5.7,-23.25,-25.2,805.0
1787131453.9528344,-3.179,3.505,8.461,-0.146,0.001,0.011,-8.55,-24.3,-26.4,774.0
1787131453.9528408,-3.211,3.383,8.425,-0.143,-0.042,0.028,-8.85,-23.1,-26.4,774.0
1787131453.9528463,-3.079,3.383,8.365,-0.132,-0.046,0.033,-8.55,-23.55,-26.1,812.0
1787131453.9528565,-3.29,3.326,8.282,-0.143,0.042,-0.022,-8.1,-24.75,-27.15,778.0
1787131453.952866,-3.361,3.282,8.344,-0.128,0.063,-0.043,-7.35,-25.05,-28.2,778.0
1787131453.9528728,-3.354,3.223,8.308,-0.111,0.066,-0.037,-7.95,-24.45,-26.25,764.0
1787131453.952879,-3.383,2.931,8.48,-0.039,0.05,-0.038,-7.35,-25.5,-28.2,772.0
1787131453.9528847,-3.519,3.012,8.521,-0.027,0.024,-0.029,-8.1,-25.8,-27.45,772.0
1787131453.9528904,-3.57,3.074,8.547,-0.034,-0.001,-0.028,-7.5,-25.2,-28.05,772.0
1787131453.9528956,-3.335,2.94,8.408,-0.031,0.039,-0.027,-8.55,-25.8,-28.2,739.0
1787131453.952901,-3.357,3.038,8.511,-0.033,0.035,-0.027,-7.05,-26.25,-30.15,739.0
1787131453.9529061,-3.349,3.05,8.418,-0.031,0.024,-0.028,-8.25,-25.2,-28.8,739.0
1787131453.9529116,-3.457,3.045,8.507,-0.031,0.002,0.01,-6.75,-25.65,-28.8,740.0
1787131453.9529173,-3.45,2.983,8.514,-0.031,-0.012,0.006,-9.75,-24.9,-27.75,740.0
1787131453.9529226,-3.484,2.964,8.461,-0.027,-0.01,0.013,-8.1,-26.25,-27.9,740.0
1787131453.952928,-3.452,2.962,8.531,-0.046,-0.007,-0.016,-8.85,-25.05,-28.95,707.0
1787131453.952933,-3.395,3.0,8.511,-0.045,-0.033,-0.015,-8.55,-25.8,-28.65,707.0
1787131453.9529386,-3.349,3.012,8.543,-0.046,-0.043,-0.003,-8.1,-26.55,-29.4,707.0
1787131453.9529438,-3.002,3.065,8.863,-0.043,-0.53,0.22,-9.0,-25.2,-27.75,754.0
1787131453.9529493,-2.71,3.306,8.83,-0.261,-0.051,-0.003,-8.7,-24.9,-28.5,924.0
1787131453.9529543,-2.66,3.189,8.645,-0.269,-0.06,0.022,-8.7,-26.1,-29.55,924.0
1787131453.9529595,-2.406,2.978,8.514,-0.247,-0.051,0.031,-8.7,-26.1,-31.8,924.0
1787131453.9529645,-2.442,2.243,8.566,-0.026,0.068,0.171,-8.1,-25.8,-33.45,980.0
1787131453.95297,-2.672,2.291,8.796,0.011,0.019,0.17,-6.0,-26.85,-33.3,937.0
1787131453.9529774,-2.634,2.31,8.873,0.004,0.001,0.162,-6.3,-27.75,-31.2,937.0
1787131453.9529824,-3.069,2.523,8.739,-0.08,0.087,-0.037,-4.65,-27.6,-32.55,873.0
1787131453.9529874,-3.115,2.674,8.703,-0.075,0.073,-0.061,-6.3,-27.75,-32.7,812.0
1787131453.9529924,-2.976,2.636,8.633,-0.066,0.062,-0.09,-6.75,-26.1,-32.55,812.0
1787131453.9529974,-2.559,2.832,8.799,0.087,0.068,-0.06,-6.6,-26.25,-32.25,865.0
1787131453.953003,-2.533,2.801,8.849,0.093,0.04,-0.033,-7.05,-27.0,-31.2,831.0
1787131453.9530094,-2.531,2.832,8.894,0.077,0.012,0.0,-8.1,-26.55,-32.7,831.0
1787131453.9530146,-2.875,2.751,8.916,-0.048,0.06,-0.014,-6.75,-26.4,-31.35,804.0
1787131453.9530194,-2.959,2.77,8.856,-0.083,0.069,-0.019,-6.75,-25.65,-33.3,799.0
1787131453.9530246,-2.916,2.717,8.77,-0.097,0.04,-0.008,-7.05,-26.55,-31.5,799.0
1787131453.9530296,-2.859,2.725,8.607,-0.003,0.015,-0.01,-7.5,-26.4,-32.55,806.0
1787131453.9530346,-2.952,2.715,8.657,0.028,0.011,0.006,-7.5,-26.4,-32.55,806.0
1787131453.95304,-3.0,2.725,8.619,0.04,0.004,0.0,-6.75,-27.6,-31.8,806.0
1787131453.953045,-2.713,2.825,8.842,-0.023,0.028,-0.044,-6.3,-25.8,-33.0,820.0
1787131453.9530501,-2.713,2.813,8.76,-0.021,0.064,-0.044,-7.8,-24.75,-31.5,820.0
1787131453.9530647,-2.878,2.856,8.794,-0.007,0.055,-0.032,-7.8,-26.25,-31.95,820.0
1787131453.95307,-3.11,2.753,8.748,-0.034,0.037,-0.009,-8.25,-26.1,-29.55,818.0
1787131453.9530747,-2.933,2.792,8.708,-0.037,0.018,-0.015,-7.5,-26.85,-33.3,793.0
1787131453.9530811,-2.995,2.72,8.712,0.003,0.021,-0.018,-6.6,-27.75,-30.45,765.0
1787131453.953086,-3.031,2.717,8.679,0.002,0.014,-0.015,-8.1,-26.55,-31.2,765.0
1787131453.953091,-3.002,2.782,8.72,0.013,0.016,-0.02,-6.0,-26.85,-29.55,765.0
1787131453.9530954,-3.021,2.842,8.751,-0.003,0.026,-0.042,-7.95,-27.6,-31.05,791.0
1787131453.9531007,-2.966,2.854,8.741,-0.016,0.031,-0.037,-6.6,-27.0,-30.15,791.0
1787131453.9531054,-2.959,2.895,8.715,-0.012,0.013,-0.02,-6.75,-25.65,-32.55,791.0
1787131453.9531105,-2.942,2.837,8.751,-0.014,-0.004,0.021,-7.95,-26.1,-30.6,751.0
1787131453.953116,-2.875,2.72,8.66,-0.028,0.023,0.004,-7.95,-25.65,-29.25,751.0
1787131453.953121,-3.01,2.717,8.655,-0.019,0.046,0.002,-7.05,-27.45,-30.45,751.0
1787131453.953126,-3.132,2.837,8.765,-0.011,-0.01,-0.001,-6.6,-25.8,-32.25,738.0
1787131453.9531314,-3.014,2.849,8.712,-0.01,-0.022,0.005,-7.35,-26.25,-29.7,738.0
1787131453.9531364,-2.957,2.825,8.701,-0.011,-0.013,0.013,-6.45,-27.9,-31.05,738.0
1787131453.9531415,-3.057,2.842,8.689,0.006,-0.004,0.003,-7.2,-26.1,-31.35,755.0
1787131453.9531465,-3.086,2.83,8.696,-0.003,-0.012,-0.001,-7.5,-27.6,-29.85,755.0
1787131453.9531512,-3.033,2.861,8.756,-0.004,-0.017,-0.009,-7.5,-26.85,-31.8,755.0
1787131453.9531562,-2.849,2.935,8.868,-0.045,-0.013,-0.011,-7.8,-27.75,-30.9,769.0
1787131453.9531615,-2.729,2.95,8.961,-0.061,-0.001,-0.004,-6.3,-27.0,-31.2,769.0
1787131453.9531662,-2.847,2.88,8.928,-0.056,-0.018,0.013,-7.05,-25.8,-31.5,736.0
1787131453.9531724,-2.883,2.849,8.78,-0.112,-0.046,0.066,-7.8,-27.45,-31.5,800.0
1787131453.9531782,-2.835,2.851,8.717,-0.117,0.015,0.055,-6.45,-27.6,-33.3,810.0
1787131453.9531832,-2.799,2.804,8.588,-0.14,0.031,0.059,-7.95,-26.4,-31.05,810.0
1787131453.9531884,-2.777,2.437,8.655,0.062,0.037,0.061,-6.75,-27.15,-32.85,824.0
1787131453.9531934,-2.959,2.512,8.839,0.093,-0.047,0.061,-6.3,-27.45,-31.2,832.0
1787131453.9531984,-2.679,2.875,8.614,-0.025,0.066,-0.079,-6.45,-25.2,-31.05,821.0
1787131453.9532075,-2.602,2.866,8.703,-0.018,0.043,-0.07,-7.35,-26.25,-32.25,821.0
1787131453.9532123,-2.617,2.887,8.717,0.006,0.018,-0.034,-7.5,-26.4,-31.8,821.0
1787131453.9532168,-2.808,2.887,8.823,0.029,-0.001,0.022,-6.3,-27.75,-31.5,775.0
1787131453.9532216,-2.77,2.883,8.916,0.015,0.007,0.024,-6.6,-27.45,-31.95,779.0
1787131453.9532266,-2.851,2.844,8.882,0.011,0.029,0.024,-7.2,-26.4,-31.8,779.0
1787131453.9532313,-2.856,2.799,8.744,-0.039,0.016,-0.014,-7.35,-25.05,-31.2,810.0
1787131453.9532359,-2.966,2.792,8.746,-0.032,0.021,-0.01,-6.45,-26.85,-31.05,730.0
1787131453.953241,-3.007,2.816,8.65,-0.023,0.004,-0.014,-7.35,-24.75,-32.25,730.0
1787131453.9532456,-2.909,2.801,8.612,-0.02,-0.022,-0.01,-5.85,-26.55,-31.95,730.0
1787131453.953251,-2.842,2.734,8.669,-0.005,-0.016,-0.008,-6.3,-26.25,-31.5,730.0
1787131453.9532554,-2.765,2.806,8.693,0.005,0.004,-0.007,-5.55,-26.25,-30.9,730.0
1787131453.9532602,-2.746,2.813,8.909,-0.043,0.016,-0.032,-7.8,-26.55,-32.25,774.0
1787131453.953265,-2.816,2.753,8.813,-0.045,0.044,-0.026,-5.85,-26.55,-31.5,774.0
1787131453.95327,-2.732,2.643,8.782,-0.037,0.03,-0.021,-7.8,-27.0,-33.45,774.0
1787131454.1282563,-2.576,2.871,8.792,-0.018,0.022,0.025,-6.6,-27.75,-30.9,784.0
1787131454.1282814,-2.638,2.88,8.732,-0.005,0.012,0.045,-7.95,-26.85,-30.3,784.0
1787131454.128292,-2.581,2.83,8.641,0.018,-0.015,0.069,-8.1,-25.05,-31.5,784.0
1787131454.3367925,-2.887,2.899,8.672,0.036,-0.085,0.089,-8.1,-26.55,-31.95,805.0
1787131454.3368177,-2.77,2.942,8.71,0.037,-0.104,0.073,-8.1,-26.55,-31.95,805.0
1787131454.5378284,-2.452,3.014,8.796,0.013,-0.021,0.025,-6.3,-25.5,-30.9,909.0
1787131454.5378616,-2.325,2.935,8.595,-0.036,0.061,0.017,-7.05,-25.8,-31.2,909.0
1787131454.5378728,-2.456,2.971,8.648,-0.031,0.093,0.053,-5.55,-26.25,-31.5,794.0
1787131454.7413101,-2.631,2.928,8.55,-0.028,0.079,0.07,-6.45,-25.2,-30.6,794.0
1787131454.7413356,-2.682,2.835,8.511,-0.017,0.077,0.076,-5.85,-27.0,-30.9,794.0
1787131454.7413468,-2.842,2.892,8.6,0.001,0.074,0.079,-5.85,-26.25,-30.15,794.0
1787131454.9421823,-2.44,2.976,8.724,-0.048,0.074,0.069,-4.35,-24.75,-30.45,740.0
1787131454.9466226,-2.72,2.875,8.653,-0.044,0.07,0.112,-5.1,-27.0,-32.25,740.0
1787131454.94664,-2.856,2.751,8.617,-0.021,0.033,0.155,-5.4,-26.85,-31.05,687.0
1787131455.1501687,-3.153,2.971,8.66,-0.113,0.048,-0.032,-3.3,-27.45,-31.2,657.0
1787131455.1501935,-3.002,2.847,8.6,-0.124,0.044,-0.051,-3.9,-26.4,-31.8,657.0
1787131455.1502044,-3.0,2.883,8.526,-0.106,0.049,-0.045,-4.35,-27.75,-31.2,678.0
1787131455.3555088,-2.904,2.895,8.645,0.007,-0.028,0.031,-4.95,-27.6,-32.1,704.0
1787131455.3555322,-2.887,2.916,8.741,0.012,-0.032,0.034,-3.45,-26.4,-31.8,704.0
1787131455.3555434,-2.907,2.883,8.777,0.01,-0.022,0.018,-3.3,-27.45,-31.2,656.0
1787131455.5666997,-2.921,3.084,8.756,-0.121,0.009,-0.014,-4.65,-26.85,-31.05,716.0
1787131455.5667243,-2.835,2.983,8.645,-0.122,0.037,-0.019,-4.2,-25.65,-32.1,716.0
1787131455.566735,-2.725,2.847,8.595,-0.106,0.062,-0.026,-3.45,-28.35,-32.85,671.0
1787131455.7718315,-2.921,2.799,8.724,0.071,0.014,0.051,-4.05,-26.25,-32.7,679.0
1787131455.7718663,-2.909,2.794,8.825,0.06,0.032,0.055,-2.1,-25.5,-32.25,679.0
1787131455.771878,-3.038,2.772,8.77,0.059,0.032,0.048,-3.6,-25.8,-31.95,679.0
1787131455.9696918,-3.093,2.928,8.758,-0.041,0.056,0.072,-3.15,-26.85,-32.55,661.0
1787131455.969717,-3.251,3.067,8.863,-0.019,0.012,0.074,-3.9,-26.1,-32.55,661.0
1787131455.969728,-3.103,3.139,8.794,0.004,-0.027,0.084,-2.55,-25.8,-32.7,661.0
1787131456.3758025,-3.136,3.543,8.566,0.355,0.119,-0.125,-2.4,-24.15,-31.8,659.0
1787131456.386607,-3.182,3.591,8.712,0.287,0.124,-0.105,-2.55,-23.55,-31.95,655.0
1787131456.386631,-3.44,3.816,8.681,0.182,0.0,-0.106,-2.7,-22.5,-33.3,655.0
1787131456.5845609,-2.78,2.361,8.497,-0.394,-0.076,0.024,-4.8,-25.8,-35.55,905.0
1787131456.584586,-2.581,2.464,8.456,-0.279,-0.129,-0.053,-4.65,-24.45,-35.85,905.0
1787131456.5845973,-2.081,2.775,8.645,-0.141,-0.112,-0.106,-5.55,-24.75,-37.05,905.0
1787131456.7888906,-1.992,2.502,8.782,-0.266,0.011,0.097,-6.45,-25.2,-34.65,992.0
1787131456.7889152,-2.272,2.397,8.923,-0.225,-0.054,0.108,-4.95,-25.2,-37.65,1485.0
1787131456.7889261,-2.332,2.351,8.942,-0.176,-0.113,0.107,-6.3,-24.75,-36.0,1485.0
1787131456.990135,-2.358,2.035,9.052,-0.066,0.095,-0.143,-5.4,-26.85,-37.65,1731.0
1787131456.9929588,-2.33,1.927,9.043,0.0,0.088,-0.12,-4.95,-27.9,-37.2,1902.0
1787131456.9931371,-2.236,2.037,9.0,0.049,0.063,-0.097,-6.0,-26.4,-37.95,1902.0
1787131457.1990306,-2.088,2.552,9.081,-0.04,0.056,-0.054,-6.75,-27.15,-37.65,1908.0
1787131457.1990561,-1.951,2.485,9.048,-0.007,0.068,-0.037,-6.3,-27.45,-36.3,1895.0
1787131457.1990674,-1.93,2.428,9.026,0.001,0.059,-0.019,-6.6,-27.45,-36.3,1895.0
1787131457.404939,-1.889,2.418,9.06,0.01,0.063,0.003,-6.6,-27.75,-37.05,1895.0
1787131457.4049644,-2.011,2.33,9.153,0.028,0.072,0.026,-6.3,-25.5,-36.75,1895.0
1787131457.4049754,-2.081,2.306,9.177,0.014,0.052,0.037,-5.1,-27.0,-36.75,1895.0
1787131457.606643,-2.234,2.207,9.225,-0.001,0.014,0.074,-5.4,-26.1,-36.9,1863.0
1787131457.6066678,-2.377,2.21,9.321,-0.013,-0.032,0.079,-5.1,-26.25,-37.05,1863.0
1787131457.608624,-2.389,2.188,9.335,-0.011,-0.039,0.085,-5.55,-27.45,-36.0,1863.0
1787131457.8110855,-1.683,2.229,8.988,-0.254,-0.312,-0.034,-10.35,-27.75,-39.3,2087.0
1787131458.0235457,-1.42,1.353,9.024,-0.105,0.183,0.064,-8.55,-29.7,-42.3,2111.0
1787131458.0235708,-1.597,1.372,9.108,-0.082,0.199,0.07,-7.95,-30.3,-43.5,2111.0
1787131458.023582,-1.618,1.264,9.23,-0.049,0.194,0.06,-7.8,-28.95,-42.6,2111.0
1787131458.2232294,-1.798,1.415,9.869,0.06,0.013,-0.083,-6.6,-30.45,-41.85,2155.0
1787131458.2232547,-1.836,1.475,9.826,0.092,-0.039,-0.092,-8.55,-28.5,-43.05,2155.0
1787131458.223266,-1.81,1.583,9.792,0.106,-0.07,-0.081,-6.75,-29.1,-41.7,2155.0
1787131458.4269445,-1.571,1.686,9.641,-0.007,-0.072,-0.07,-8.1,-29.25,-41.55,2154.0
1787131458.426969,-1.597,1.571,9.555,-0.015,-0.022,-0.068,-8.85,-30.15,-42.3,2154.0
1787131458.4269812,-1.635,1.571,9.488,-0.029,0.004,-0.05,-9.3,-29.25,-40.05,2154.0
1787131458.6433005,-1.647,1.633,9.282,-0.03,0.014,-0.054,-9.3,-28.95,-42.6,2179.0
1787131458.6433237,-1.506,1.501,9.237,-0.032,0.027,-0.067,-9.6,-28.5,-42.3,2179.0
1787131458.6433346,-1.523,1.53,9.278,-0.037,0.03,-0.069,-9.0,-29.1,-42.45,2179.0
1787131458.8371732,-1.542,1.468,9.313,-0.024,0.011,-0.035,-9.75,-28.8,-41.7,2112.0
1787131458.8371983,-1.623,1.542,9.388,-0.021,-0.023,-0.004,-9.6,-28.95,-41.85,2112.0
1787131458.837209,-1.482,1.506,9.364,-0.026,-0.036,0.002,-8.55,-29.25,-41.1,2112.0
1787131459.041087,-1.618,1.243,9.297,-0.08,0.014,0.014,-9.6,-30.15,-43.05,2136.0
1787131459.0411112,-1.686,1.283,9.345,-0.088,0.012,0.013,-9.0,-29.55,-42.0,2136.0
1787131459.041122,-1.638,1.307,9.471,-0.073,0.01,0.015,-9.6,-29.7,-42.3,2136.0
1787131459.244201,-1.607,1.231,9.469,-0.06,0.024,0.017,-10.2,-30.3,-42.45,2136.0
1787131459.2442331,-1.614,1.276,9.486,-0.064,0.02,0.01,-9.45,-30.3,-43.2,2112.0
1787131459.2485576,-1.712,1.379,9.515,-0.053,0.005,0.003,-8.55,-29.25,-41.55,2112.0
1787131459.4497187,-2.045,1.314,9.366,0.055,0.141,0.081,-8.1,-30.15,-42.6,2126.0
1787131459.4497426,-2.15,1.348,9.392,0.07,0.119,0.083,-7.95,-29.55,-42.75,2126.0
1787131459.449754,-2.286,1.403,9.481,0.055,0.086,0.071,-7.95,-29.1,-43.5,2116.0
1787131459.6545708,-2.198,1.389,9.51,0.05,0.082,0.064,-5.85,-27.75,-44.1,2116.0
1787131459.6545951,-2.253,1.475,9.498,0.033,0.105,0.053,-6.75,-29.85,-42.45,2116.0
1787131459.6546063,-2.093,1.336,9.481,0.021,0.142,0.001,-7.8,-29.7,-44.1,2116.0
1787131460.062562,-2.054,1.362,9.141,-0.018,0.03,0.011,-6.3,-29.25,-41.1,2127.0
1787131460.0655682,-2.102,1.295,9.182,0.001,0.049,-0.02,-7.8,-29.25,-42.3,2127.0
1787131460.06559,-2.119,1.381,9.21,0.012,0.066,-0.042,-6.75,-28.8,-42.0,2127.0
1787131460.266995,-1.829,1.688,9.694,-0.031,-0.046,0.004,-7.35,-29.25,-43.05,2115.0
1787131460.2701068,-1.839,1.686,9.68,-0.056,-0.087,0.028,-7.35,-29.7,-42.3,2115.0
1787131460.2729104,-1.776,1.585,9.577,-0.063,-0.086,0.039,-7.05,-28.5,-42.6,2115.0
1787131460.4747574,-1.815,1.432,9.191,0.036,-0.028,0.007,-7.95,-29.85,-42.0,2146.0
1787131460.4747822,-1.719,1.52,9.196,0.058,-0.035,0.021,-6.3,-28.5,-41.55,2146.0
1787131460.4747937,-1.626,1.528,9.187,0.078,-0.021,0.023,-8.1,-30.45,-41.85,2146.0
1787131460.6790671,-1.741,1.662,9.369,-0.02,0.022,0.002,-7.2,-29.85,-42.0,2121.0
1787131460.6790905,-1.786,1.638,9.337,-0.022,0.025,-0.007,-8.1,-28.2,-40.35,2121.0
1787131460.680802,-1.786,1.568,9.347,-0.031,0.027,-0.018,-7.35,-28.2,-40.8,2121.0
1787131460.8903942,-1.808,1.554,9.4,-0.02,0.021,-0.023,-9.45,-28.35,-41.25,2138.0
1787131460.8904195,-1.877,1.741,9.541,-0.088,0.022,-0.053,-8.7,-28.35,-42.75,2138.0
1787131460.8904307,-2.054,2.14,9.735,-0.302,-0.044,-0.093,-7.5,-29.55,-42.75,2138.0
1787131461.08756,-1.738,-4.633,7.089,-0.291,-0.46,0.256,-12.9,-31.65,-69.45,116.0
1787131461.2923522,-2.191,0.759,8.169,3.585,0.505,0.502,-9.75,-30.6,-50.1,1092.0
1787131461.3022175,-2.169,0.725,8.593,3.052,0.657,0.537,-7.5,-29.55,-45.3,2144.0
1787131461.4986746,-2.533,2.923,9.641,0.187,-0.006,0.022,-2.7,-24.45,-33.6,2144.0
1787131461.4986987,-2.655,2.909,9.493,0.051,0.023,0.016,-4.35,-23.85,-33.45,2144.0
1787131461.49871,-2.641,2.926,9.474,-0.044,0.026,0.028,-3.6,-23.85,-32.25,802.0
1787131461.7033741,-2.832,2.6,8.722,-0.027,0.007,-0.054,-6.0,-24.9,-34.35,906.0
1787131461.7033978,-2.674,2.521,8.772,-0.074,-0.032,-0.061,-4.65,-24.15,-33.9,874.0
1787131461.7034087,-2.483,2.454,8.806,-0.09,-0.031,-0.076,-4.65,-24.15,-33.6,874.0
1787131461.9081151,-2.658,2.617,8.871,-0.04,-0.029,-0.01,-4.8,-24.3,-34.5,901.0
1787131461.908139,-2.49,2.488,8.952,-0.032,-0.025,0.002,-4.8,-23.55,-34.2,901.0
1787131461.9081495,-2.595,2.547,8.945,-0.018,-0.003,0.013,-4.05,-22.8,-33.75,901.0
1787131462.1132944,-2.593,2.471,8.959,0.001,0.021,0.011,-4.35,-23.85,-34.5,994.0
1787131462.1133184,-2.708,2.516,9.029,-0.019,0.009,0.008,-4.8,-23.85,-33.75,994.0
1787131462.1133296,-2.713,2.693,9.131,-0.124,-0.037,-0.03,-5.55,-23.85,-33.75,994.0
1787131462.318988,-3.168,-5.191,9.373,-5.886,-0.046,-0.445,-13.65,-34.8,-62.1,2125.0
1787131462.3190143,8.969,-8.157,23.181,-4.207,-0.296,0.625,-13.35,-32.85,-69.9,2125.0
1787131462.3190258,-0.213,-5.492,8.071,-3.237,-0.723,0.295,-13.95,-31.5,-72.6,2125.0
1787131462.5238984,-1.8,-5.102,7.084,1.567,-0.251,-0.56,-13.5,-31.05,-75.9,31.0
1787131462.523922,-2.054,-5.291,7.13,1.994,-0.104,-0.165,-13.95,-31.8,-75.15,31.0
1787131462.523933,-1.374,-4.685,7.597,2.316,0.112,0.029,-13.65,-31.2,-73.95,31.0
1787131462.733342,-2.294,0.982,9.926,1.53,0.068,0.313,-10.5,-30.6,-44.25,2151.0
1787131462.9325447,-2.413,1.401,9.268,-0.095,-0.07,0.006,-4.95,-27.9,-38.7,2086.0
1787131462.9326334,-2.614,1.324,9.294,-0.048,-0.094,0.009,-5.85,-26.55,-38.55,2086.0
1787131462.9326696,-2.473,1.413,9.268,0.007,-0.088,0.013,-5.55,-27.75,-38.55,2086.0
1787131463.1372986,-2.195,1.448,9.057,-0.025,-0.005,-0.052,-5.55,-26.25,-40.05,2119.0
1787131463.137321,-1.999,1.35,9.131,-0.026,0.026,-0.046,-5.7,-27.15,-40.05,2119.0
1787131463.1373277,-2.076,1.288,9.246,0.015,0.06,-0.026,-7.05,-28.95,-37.5,2119.0
1787131463.342099,-2.162,1.401,9.301,0.059,0.059,-0.022,-7.35,-28.2,-40.05,2119.0
1787131463.3421242,-2.215,1.448,9.301,0.108,0.048,0.0,-7.5,-27.9,-39.9,2119.0
1787131463.342136,-2.047,1.475,9.28,0.135,0.054,0.026,-6.6,-27.45,-37.8,2117.0
1787131463.5495508,-2.768,-0.134,10.822,-4.809,0.326,-1.178,-10.35,-32.85,-50.4,1996.0
1787131463.5495756,-3.127,-0.946,9.512,-4.626,0.379,-1.105,-12.6,-33.9,-55.05,1996.0
1787131463.5495868,-2.873,-2.993,8.942,-4.623,0.28,-0.836,-12.75,-34.2,-60.75,1828.0
1787131463.751828,-1.776,-4.92,8.171,-2.133,-0.608,0.07,-15.45,-32.55,-68.85,1828.0
1787131463.751867,-1.695,-4.786,6.881,-1.779,-0.841,0.137,-15.9,-33.15,-72.0,1828.0
1787131463.7518795,-1.496,-4.987,6.378,-1.465,-0.788,0.186,-15.9,-30.9,-73.95,6.0
1787131463.9559588,-2.342,0.328,9.385,2.15,-0.192,0.633,-8.85,-29.25,-47.1,1987.0
1787131463.9559824,-1.956,1.015,9.572,1.836,-0.097,0.534,-7.5,-29.85,-43.5,2143.0
1787131463.9559937,-2.251,1.41,9.907,1.477,-0.02,0.44,-6.3,-28.2,-41.85,2143.0
1787131464.1611402,-2.428,1.755,10.384,0.809,0.094,0.268,-5.85,-27.45,-40.05,2143.0
1787131464.1611652,-2.6,1.683,10.403,0.554,0.129,0.209,-4.2,-26.85,-38.7,2143.0
1787131464.1611762,-2.421,1.97,10.355,0.301,0.102,0.126,-5.4,-27.15,-37.95,2093.0
1787131464.366111,-2.301,1.429,9.117,0.006,0.032,-0.023,-4.65,-27.15,-39.45,2121.0
1787131464.3661356,-2.322,1.393,9.148,0.051,0.035,-0.019,-5.4,-27.15,-37.65,2121.0
1787131464.3661463,-2.294,1.365,9.172,0.111,0.033,0.01,-5.1,-25.8,-38.25,2126.0
1787131464.5709615,-2.239,1.982,9.234,0.316,0.117,0.082,-3.45,-26.85,-36.6,2000.0
1787131464.5711668,-2.224,1.939,9.167,0.364,0.115,0.106,-4.65,-26.1,-36.6,2000.0
1787131464.571175,-2.394,2.009,9.131,0.43,0.1,0.154,-4.65,-26.85,-35.85,2000.0
1787131464.77547,-2.468,3.108,9.313,0.202,-0.017,0.054,-3.9,-25.65,-35.4,2000.0
1787131464.7754948,-2.636,3.156,9.591,-0.297,-0.063,-0.131,-3.45,-24.45,-33.9,2000.0
1787131464.775506,-3.062,3.761,10.144,-1.171,-0.126,-0.438,-2.7,-24.9,-34.65,2000.0
1787131464.9831893,-0.845,-5.811,6.098,-0.47,-0.117,0.196,-13.2,-30.3,-75.6,12.0
1787131464.9832127,-1.29,-5.27,6.74,-0.021,-0.003,0.103,-13.65,-31.95,-77.25,12.0
1787131464.9832244,-1.791,-5.114,7.123,0.159,0.009,0.049,-12.75,-30.9,-77.25,12.0
1787131465.184659,-2.696,-5.792,7.951,3.565,0.433,0.762,-11.25,-32.25,-67.05,141.0
1787131465.184684,-3.014,-3.946,7.523,4.155,0.14,0.789,-10.5,-32.55,-63.75,141.0
1787131465.1846957,-3.488,-2.581,7.415,4.406,-0.211,0.75,-8.1,-32.85,-62.1,141.0
1787131465.3928123,-2.423,2.586,10.293,0.634,0.2,0.108,-2.85,-27.45,-37.05,2059.0
1787131465.3928373,-2.591,2.533,10.101,0.344,0.197,0.043,-2.85,-26.55,-36.75,2059.0
1787131465.3928485,-2.638,2.184,10.106,0.143,0.192,0.007,-2.55,-25.8,-37.5,2059.0
1787131465.5940487,-2.516,1.994,9.177,0.006,0.0,-0.084,-1.95,-26.1,-35.85,1974.0
1787131465.5940726,-2.433,1.913,9.117,0.019,0.011,-0.074,-2.55,-25.8,-36.3,1974.0
1787131465.5940833,-2.325,1.935,9.091,0.009,0.021,-0.065,-2.1,-26.55,-37.05,1974.0
1787131465.7991612,-2.404,1.968,9.122,0.103,-0.002,0.001,-3.6,-27.45,-34.95,1777.0
1787131465.7991865,-2.421,1.97,9.155,0.1,-0.012,-0.001,-4.2,-26.1,-36.6,1806.0
1787131465.7991977,-2.512,2.028,9.134,0.089,-0.02,0.001,-2.1,-26.55,-35.25,1806.0
1787131466.0017505,-2.406,2.605,9.098,0.482,0.02,0.127,-4.05,-26.25,-34.95,1401.0
1787131466.2101908,-10.331,-20.322,4.48,-1.808,-0.734,0.132,-14.1,-32.4,-68.4,144.0
1787131466.2102168,-2.461,-4.793,7.017,-0.89,-0.774,0.087,-16.95,-31.8,-70.05,144.0
1787131466.2102277,-1.674,-5.571,6.546,-0.332,-0.527,0.122,-13.65,-32.4,-72.45,144.0
1787131466.4132009,-2.782,-2.126,8.353,3.436,-0.156,0.455,-11.25,-33.45,-56.4,289.0
1787131466.4132252,-2.564,-1.29,8.296,3.465,-0.217,0.534,-10.95,-33.0,-54.6,289.0
1787131466.413236,-2.03,-0.704,8.322,3.472,-0.027,0.699,-7.5,-31.8,-47.25,2198.0
1787131466.618679,-2.931,2.217,9.893,1.261,0.138,0.394,-5.4,-27.6,-36.9,1918.0
1787131466.6187038,-2.887,2.377,9.969,1.211,0.112,0.408,-5.1,-25.05,-36.3,1918.0
1787131466.6187148,-2.715,2.576,9.579,1.141,0.128,0.433,-5.55,-26.25,-33.0,1918.0
1787131466.8233688,-2.629,3.431,8.708,0.194,-0.076,0.117,-0.9,-22.2,-29.25,741.0
1787131466.8233943,-2.65,3.534,8.691,0.104,-0.043,0.066,-1.05,-22.8,-29.4,741.0
1787131466.8234055,-2.689,3.443,8.655,0.027,-0.023,0.029,-0.9,-22.2,-29.25,741.0
1787131467.0280488,-2.658,3.369,8.562,0.003,-0.001,-0.018,-0.6,-21.6,-27.9,736.0
1787131467.0280726,-2.641,3.335,8.538,0.011,0.006,-0.011,0.15,-20.55,-29.55,736.0
1787131467.028085,-2.576,3.412,8.578,0.004,0.001,-0.011,-0.15,-21.45,-28.8,736.0
1787131467.2323725,-2.531,3.369,8.617,-0.015,0.035,-0.016,-1.65,-21.45,-27.75,754.0
1787131467.2323983,-2.705,3.488,8.72,-0.068,-0.007,-0.035,-2.4,-20.25,-28.5,754.0
1787131467.2324092,-2.83,3.785,8.887,-0.151,-0.043,-0.092,-1.2,-20.25,-29.85,754.0
1787131467.4371781,-2.804,4.022,8.985,-0.394,-0.08,-0.258,-1.35,-21.6,-28.95,718.0
1787131467.4372032,-3.065,4.391,9.357,-0.911,-0.062,-0.45,-1.2,-21.75,-29.25,718.0
1787131467.437214,-2.983,4.611,9.29,-1.952,-0.093,-0.713,-2.1,-23.85,-30.15,718.0
1787131467.6425734,-2.016,-5.411,6.634,-0.739,-0.925,-0.089,-15.75,-34.2,-68.55,2094.0
1787131467.6425986,-1.654,-5.023,6.91,-0.087,-0.938,0.208,-15.6,-31.65,-69.15,2094.0
1787131467.64261,-1.448,-4.175,7.01,0.622,-0.791,0.172,-16.2,-32.25,-70.35,2094.0
1787131467.8465025,-2.868,4.116,10.058,1.102,0.047,0.45,-2.4,-22.5,-30.6,2103.0
1787131467.8465278,-2.691,4.405,9.895,0.484,0.078,0.335,-2.7,-23.25,-31.05,817.0
1787131467.846539,-2.732,3.632,10.096,0.26,0.085,0.201,-0.6,-23.1,-28.95,817.0
1787131468.0517251,-2.495,2.919,8.631,-0.123,-0.032,-0.051,0.9,-22.5,-30.6,773.0
1787131468.0517502,-2.399,2.856,8.622,-0.118,-0.037,-0.068,-1.05,-23.1,-32.7,806.0
1787131468.0517614,-2.418,2.974,8.643,-0.092,-0.016,-0.06,-0.9,-23.7,-31.8,806.0
1787131468.2561703,-2.497,3.055,8.875,0.053,-0.038,0.005,-2.85,-23.1,-30.45,805.0
1787131468.2561972,-2.535,3.168,8.892,0.059,-0.034,0.018,-1.35,-22.8,-31.2,794.0
1787131468.2562032,-2.574,3.182,8.985,0.042,-0.032,0.009,-1.35,-24.3,-30.9,794.0
1787131468.4610686,-2.48,3.33,8.689,0.167,-0.072,0.122,-1.2,-23.25,-30.6,807.0
1787131468.4610934,-2.337,3.745,8.801,0.067,-0.101,0.051,0.0,-22.35,-30.45,828.0
1787131468.4611046,-2.392,3.579,8.806,-0.227,-0.046,-0.079,-0.9,-22.5,-29.55,828.0
1787131468.6663358,-2.296,0.072,9.898,-4.607,0.137,-1.119,-7.2,-33.0,-49.35,885.0
1787131468.666361,-2.413,-1.161,9.833,-4.233,0.305,-0.867,-10.05,-33.6,-53.7,2128.0
1787131468.666372,-2.246,-3.5,9.598,-3.558,0.408,-0.65,-9.6,-35.1,-58.5,2128.0
1787131468.8709702,-1.671,-4.499,7.183,-0.114,0.069,-0.07,-14.4,-31.65,-72.45,138.0
1787131468.8709953,-1.767,-4.226,7.274,0.123,0.23,-0.119,-14.25,-32.55,-71.1,138.0
1787131468.8710065,-2.152,-4.477,7.453,0.377,0.258,-0.09,-13.65,-34.35,-70.95,50.0
1787131469.0754342,-2.746,-3.74,8.329,3.205,0.108,0.383,-11.85,-34.35,-61.05,1085.0
1787131469.0754585,-3.084,-1.599,8.116,3.424,0.123,0.547,-10.8,-33.9,-58.8,1085.0
1787131469.2795894,-2.555,2.253,9.55,0.863,0.371,0.246,-2.85,-26.25,-37.05,2011.0
1787131469.279613,-2.775,2.382,9.261,0.762,0.222,0.251,-4.2,-24.9,-34.35,2011.0
1787131469.4863362,-2.856,3.29,8.65,0.269,0.053,-0.002,-1.65,-22.5,-30.6,689.0
1787131469.486361,-2.83,3.424,8.638,0.147,0.046,-0.01,-1.35,-23.55,-29.7,689.0
1787131469.486372,-2.878,3.397,8.681,0.057,0.018,0.003,-0.9,-22.5,-28.8,689.0
1787131469.6902146,-2.88,3.342,8.612,-0.018,0.013,0.01,-1.35,-22.8,-29.4,687.0
1787131469.6902394,-2.828,3.309,8.576,-0.03,0.007,0.011,-1.95,-21.45,-29.25,687.0
1787131469.6902506,-2.849,3.29,8.614,-0.051,0.015,-0.006,0.0,-23.85,-30.9,687.0
1787131469.89521,-2.832,3.575,9.558,-3.908,-0.023,-0.716,-2.55,-27.45,-37.8,874.0
1787131469.8952384,-3.124,2.952,9.855,-4.667,0.016,-0.921,-3.3,-30.45,-44.1,874.0
1787131470.1012738,-2.897,-5.885,5.981,-0.477,-0.599,0.223,-12.0,-33.75,-72.3,37.0
1787131470.1013434,-1.817,-4.729,5.808,0.134,-0.767,0.298,-11.25,-33.45,-74.1,37.0
1787131470.101386,-1.389,-4.391,5.916,0.751,-0.492,-0.017,-11.7,-31.8,-73.65,37.0
1787131470.3041053,-2.105,-1.149,8.284,3.586,-0.252,0.401,-9.45,-33.75,-53.4,2111.0
1787131470.3041306,-2.322,-0.17,8.629,3.69,-0.013,0.672,-6.75,-31.5,-51.3,2111.0
1787131470.3041415,-2.239,0.704,8.705,3.519,0.068,0.7,-4.65,-31.05,-44.25,2111.0
1787131470.5085306,-2.813,4.803,9.668,0.401,0.095,0.083,-0.6,-20.85,-27.15,657.0
1787131470.5085561,-2.938,4.503,9.603,0.191,0.107,0.031,-0.6,-20.85,-26.4,657.0
1787131470.5085678,-3.05,4.389,9.457,0.034,0.086,0.003,0.3,-21.15,-26.85,657.0
1787131470.716228,-2.89,3.567,8.277,-0.116,-0.034,-0.035,0.6,-20.1,-27.45,654.0
1787131470.7162516,-2.902,3.553,8.198,-0.105,-0.035,-0.039,-1.35,-21.6,-28.95,676.0
1787131470.7162628,-2.981,3.563,8.155,-0.127,-0.06,-0.041,-0.45,-21.75,-27.0,676.0
1787131470.9162238,-2.823,3.421,8.382,-0.018,0.017,-0.016,-1.8,-21.6,-27.9,630.0
1787131471.1230748,-0.927,-3.491,10.084,-5.052,-0.237,-0.287,-9.0,-36.45,-60.45,675.0
1787131471.123098,-1.925,-4.477,9.433,-4.082,0.363,-0.039,-9.75,-33.45,-63.45,675.0
1787131471.1231089,-3.122,-4.693,8.442,-3.382,0.359,0.046,-10.05,-33.9,-67.2,675.0
1787131471.3278024,-2.32,-4.171,6.943,0.576,0.155,-0.103,-10.35,-32.4,-75.0,19.0
1787131471.3278267,-2.473,-4.049,7.269,0.505,0.043,-0.104,-10.5,-31.8,-75.6,19.0
1787131471.327838,-2.195,-4.65,7.661,0.455,-0.011,-0.044,-12.15,-30.15,-75.0,19.0
1787131471.534083,-2.634,-0.206,8.191,3.475,-0.115,0.062,-6.3,-31.95,-51.45,2065.0
1787131471.5341058,-1.961,0.067,9.196,2.979,0.081,0.542,-6.6,-28.5,-49.2,2065.0
1787131471.5341167,-2.574,1.018,9.366,2.732,0.228,0.529,-4.05,-29.25,-46.35,2065.0
1787131471.7378318,-2.701,1.59,9.962,-0.121,0.1,0.021,-4.95,-24.45,-37.65,1969.0
1787131471.7378705,-2.84,1.532,9.749,-0.13,0.121,0.014,-3.6,-26.25,-37.8,1969.0
1787131471.7378821,-3.153,1.549,9.582,-0.162,0.068,0.011,-3.45,-26.85,-37.2,1969.0
1787131471.9422095,-2.816,1.504,9.009,-0.011,-0.042,-0.034,-5.55,-27.45,-39.6,2033.0
1787131471.9422343,-2.777,1.446,9.029,-0.016,-0.047,-0.01,-4.95,-27.15,-39.15,2033.0
1787131471.942246,-2.579,1.429,9.055,0.006,-0.015,0.003,-4.2,-27.15,-38.7,2033.0
1787131472.146858,-2.861,1.815,9.273,0.185,-0.062,0.118,-1.95,-25.65,-39.15,2003.0
1787131472.1469064,-2.95,2.361,9.337,0.142,-0.086,0.054,-5.1,-27.0,-38.25,2003.0
1787131472.1469183,-3.282,2.648,9.589,-0.195,-0.101,-0.064,-3.45,-26.85,-37.95,2003.0
1787131472.3517497,-3.8,-5.432,8.583,-3.267,0.471,-0.497,-12.45,-31.8,-70.35,40.0
1787131472.3517745,-2.892,-6.589,7.096,-2.365,0.003,-0.425,-12.75,-31.5,-72.9,40.0
1787131472.3517857,-2.516,-4.985,6.507,-1.488,-0.266,-0.123,-12.15,-31.65,-75.0,40.0
1787131472.5541935,-2.567,-5.248,8.042,1.415,0.014,-0.059,-12.75,-31.8,-72.6,49.0
1787131472.761967,-3.062,0.608,10.046,1.33,0.242,0.301,-5.4,-28.8,-42.45,2004.0
1787131472.7619915,-3.1,1.089,9.737,1.257,0.173,0.292,-6.45,-28.35,-40.95,2004.0
1787131472.7620025,-3.474,1.343,9.589,0.607,-0.02,0.19,-6.0,-29.1,-39.9,2150.0
1787131472.9664998,-2.883,1.027,9.033,-0.04,-0.031,0.019,-4.95,-27.9,-39.9,2055.0
1787131472.9665241,-2.818,1.077,9.045,-0.031,-0.002,-0.006,-5.4,-27.9,-40.2,2055.0
1787131472.9665353,-2.811,1.027,9.05,0.025,0.012,-0.028,-5.1,-27.45,-40.35,2073.0
1787131473.172549,-2.816,1.223,9.177,0.427,-0.023,0.18,-3.3,-26.55,-37.8,2057.0
1787131473.1725733,-2.837,1.614,9.038,0.617,0.002,0.253,-4.05,-26.55,-38.25,2007.0
1787131473.375763,-3.553,-1.178,9.965,-4.364,0.64,-1.059,-10.05,-32.85,-53.7,2108.0
1787131473.3757873,-3.797,-0.625,8.329,-4.858,0.463,-1.136,-11.7,-33.75,-58.2,2108.0
1787131473.3757985,-4.013,-3.017,7.913,-5.565,0.152,-0.996,-11.85,-33.9,-63.15,2108.0
1787131473.5804627,-1.717,-5.777,5.926,1.026,0.436,-0.078,-14.85,-28.95,-77.55,39.0
1787131473.5804873,-2.476,-4.47,5.318,1.141,0.135,-0.024,-13.5,-29.1,-76.65,39.0
1787131473.5804985,-3.579,-4.712,6.275,1.278,-0.136,-0.06,-13.95,-31.05,-75.15,39.0
1787131473.7852998,-3.175,-1.805,8.124,3.56,-0.198,0.411,-9.6,-32.85,-57.75,34.0
1787131473.7853253,-3.127,-0.697,8.32,3.302,-0.178,0.605,-8.85,-31.95,-49.95,34.0
1787131473.7853363,-2.885,0.407,8.729,2.508,-0.21,0.537,-8.1,-30.15,-48.45,2176.0
1787131473.9942746,-2.959,2.2,10.185,0.778,0.187,0.196,-3.15,-27.6,-36.9,1938.0
1787131473.9942992,-2.868,2.179,9.644,0.524,0.163,0.141,-3.15,-26.4,-36.9,1938.0
1787131474.194651,-2.828,2.059,8.818,-0.021,-0.006,-0.001,-1.35,-26.55,-34.2,1938.0
1787131474.1946766,-2.926,2.061,8.801,-0.043,-0.034,-0.015,-1.95,-25.65,-33.9,1938.0
1787131474.3995006,-2.964,3.345,9.515,-1.813,-0.045,-0.611,-3.15,-25.2,-36.15,947.0
1787131474.3995247,-2.806,2.607,9.878,-2.723,0.04,-0.732,-3.6,-26.55,-36.75,1938.0
1787131474.3995361,-3.613,2.715,9.864,-3.412,0.124,-0.867,-4.35,-30.15,-41.1,1938.0
1787131474.604387,-1.595,-6.057,6.397,-0.706,-0.206,0.147,-14.1,-31.65,-71.25,1938.0
1787131474.6044116,-1.724,-5.282,6.622,-0.084,-0.152,0.396,-12.45,-33.45,-71.85,25.0
1787131474.6044226,-1.276,-4.515,6.455,0.328,-0.152,0.276,-13.95,-32.25,-72.6,25.0
1787131474.809403,-2.734,-1.279,7.549,3.999,-0.198,0.329,-9.0,-33.75,-54.9,2182.0
1787131474.8094282,-2.842,0.029,7.554,3.41,-0.113,0.547,-5.85,-32.4,-48.9,2182.0
1787131474.8094392,-2.696,1.346,8.875,2.76,-0.054,0.711,-5.7,-31.05,-46.05,2182.0
1787131475.0138412,-2.878,2.31,9.924,0.738,0.054,0.218,-2.7,-25.65,-35.4,2090.0
1787131475.0138752,-2.83,2.636,9.749,0.391,0.068,0.093,-2.1,-25.8,-33.45,2090.0
1787131475.0138876,-2.729,2.545,9.737,0.123,0.114,0.023,-0.45,-24.9,-34.35,2090.0
1787131475.2185714,-2.713,2.066,8.938,-0.151,0.042,-0.047,-2.4,-25.65,-34.65,2090.0
1787131475.2185967,-2.861,2.052,8.88,-0.119,-0.021,-0.039,-2.1,-25.8,-34.2,1114.0
1787131475.218608,-2.761,1.92,8.763,-0.097,-0.036,-0.017,-2.1,-26.25,-35.55,1114.0
1787131475.4231982,-2.593,1.903,8.981,0.001,0.016,-0.039,-2.7,-25.65,-33.6,1510.0
1787131475.4232235,-2.662,2.028,9.069,0.022,0.053,-0.028,-1.8,-26.55,-34.95,1510.0
1787131475.4232342,-2.682,2.018,9.131,0.017,0.031,-0.007,-2.55,-24.3,-34.95,1510.0
1787131475.628263,-2.452,1.827,10.044,-4.58,0.254,-0.658,-7.5,-34.2,-48.3,1825.0
1787131475.6282878,-3.11,1.183,10.087,-5.113,0.236,-0.693,-9.0,-32.55,-53.85,1825.0
1787131475.628299,-3.821,0.376,8.696,-5.748,0.166,-0.54,-8.1,-35.55,-59.1,1825.0
1787131475.831311,-2.598,-5.784,7.235,0.572,0.184,0.114,-11.7,-30.3,-75.15,69.0
1787131476.03783,-2.406,0.984,8.978,2.503,-0.062,0.745,-5.1,-28.95,-44.4,2137.0
1787131476.0378726,-2.488,0.692,9.254,2.141,0.005,0.658,-2.55,-29.7,-41.55,2137.0
1787131476.0378847,-2.765,1.745,9.349,1.883,0.052,0.529,-3.3,-27.75,-40.35,2137.0
1787131476.2430995,-2.813,2.54,9.512,-0.013,-0.01,0.054,-2.4,-24.15,-33.9,976.0
1787131476.2431242,-2.847,2.461,9.361,-0.092,-0.047,0.037,0.3,-24.3,-36.3,976.0
1787131476.243135,-2.72,2.583,9.096,-0.167,-0.055,0.017,-1.05,-25.8,-34.95,976.0
1787131476.4479005,-2.569,2.342,8.916,-0.002,-0.022,0.049,-0.45,-24.45,-34.35,1324.0
1787131476.4479265,-2.495,2.38,8.95,0.046,-0.009,0.074,-0.3,-25.05,-35.55,1324.0
1787131476.4479373,-2.672,2.421,8.887,0.018,-0.011,0.053,0.6,-24.75,-36.75,1324.0
1787131476.6517951,-2.392,2.377,8.976,0.321,0.032,0.109,0.9,-25.65,-35.85,1324.0
1787131476.6518192,-2.523,2.957,8.914,0.429,0.026,0.134,-0.45,-24.15,-33.3,1324.0
1787131476.65183,-2.361,2.476,9.208,0.312,-0.037,0.121,0.45,-25.65,-33.3,1324.0
1787131476.8567946,-2.909,3.194,9.74,-4.363,0.019,-1.044,-3.9,-29.55,-41.7,2141.0
1787131476.8568184,-3.021,1.812,9.852,-4.982,0.043,-1.091,-5.85,-33.15,-45.9,2141.0
1787131476.8568294,-2.464,0.158,9.603,-4.86,0.136,-0.972,-9.0,-34.2,-53.1,2141.0
1787131477.0615401,-2.1,-4.211,6.946,-0.764,-0.184,-0.096,-12.45,-32.55,-72.9,2141.0
1787131477.061565,-1.283,-5.176,6.891,-0.172,-0.063,-0.043,-12.45,-29.85,-74.1,58.0
1787131477.0615761,-0.735,-4.994,6.378,0.418,0.156,-0.076,-14.85,-30.45,-73.5,58.0
1787131477.2662826,-2.914,-1.626,7.396,4.587,-0.273,0.653,-9.3,-32.85,-55.05,154.0
1787131477.266307,-2.631,0.558,7.58,4.055,-0.138,0.763,-6.0,-32.25,-49.8,2194.0
1787131477.2663186,-2.83,0.572,8.416,3.305,0.073,0.848,-6.45,-30.3,-45.0,2194.0
1787131477.4711363,-2.626,1.448,9.189,2.576,0.232,0.767,-4.8,-29.25,-42.3,2194.0
1787131477.471161,-3.165,1.314,9.79,2.162,0.245,0.621,-4.95,-26.85,-40.95,2194.0
1787131477.4712164,-3.45,2.239,9.876,1.72,0.122,0.401,-4.65,-27.9,-38.4,2194.0
1787131477.6763287,-2.758,1.877,8.612,-0.087,-0.057,-0.026,-1.05,-25.8,-36.3,1257.0
1787131477.6763537,-2.746,1.935,8.595,0.005,-0.062,0.02,-3.9,-24.45,-34.35,1257.0
1787131477.676365,-2.763,1.939,8.653,0.07,-0.082,0.028,-2.55,-26.25,-35.55,1257.0
1787131477.8806114,-2.674,2.385,8.904,0.192,-0.019,0.11,-2.7,-25.2,-32.55,1903.0
1787131477.8806372,-2.705,2.602,8.88,0.143,-0.081,0.083,-1.8,-24.75,-33.75,1903.0
1787131477.8806484,-2.631,2.181,8.961,0.134,-0.068,0.068,-1.8,-25.05,-32.25,1903.0
1787131478.0857143,-2.583,3.302,9.05,0.169,-0.014,0.037,-2.55,-22.8,-31.5,1056.0
1787131478.085739,-2.421,2.816,9.105,0.09,0.036,-0.008,-2.85,-22.8,-31.5,1056.0
1787131478.08575,-2.473,2.942,9.069,0.02,0.079,-0.039,-1.05,-23.1,-31.95,1056.0
1787131478.2905915,-3.476,1.899,9.902,-3.446,0.16,-1.242,-4.65,-29.55,-38.7,1769.0
1787131478.2906158,-3.713,1.597,9.792,-3.863,-0.051,-1.215,-8.25,-29.85,-41.25,1769.0
1787131478.2906268,-3.366,1.147,9.055,-4.583,-0.322,-1.166,-9.6,-30.9,-49.65,1769.0
1787131478.4949415,-1.221,-4.834,6.771,0.244,-0.244,0.125,-17.4,-31.95,-70.95,72.0
1787131478.494966,-0.644,-4.946,7.096,0.494,-0.244,0.002,-15.15,-31.65,-71.7,72.0
1787131478.4949768,-1.379,-4.468,6.948,0.774,-0.052,0.137,-16.65,-32.85,-71.25,72.0
1787131478.7019103,-3.026,-2.643,8.049,3.291,0.014,0.514,-11.25,-34.2,-58.2,2176.0
1787131478.7019348,-2.593,-1.686,9.033,3.301,-0.169,0.701,-10.95,-33.0,-54.9,2176.0
1787131478.7019463,-2.049,-0.912,8.985,3.454,-0.123,0.981,-9.45,-33.75,-52.05,2176.0
1787131478.9058194,-2.665,2.306,10.118,0.411,-0.102,0.31,-3.15,-25.65,-35.4,1923.0
1787131478.9058433,-2.547,2.222,10.075,0.428,-0.054,0.293,-1.8,-26.25,-34.5,1923.0
1787131478.905862,-2.545,2.622,9.802,0.362,-0.03,0.229,-2.4,-25.2,-33.3,1923.0
1787131479.1099274,-2.253,2.433,8.933,-0.074,-0.021,-0.041,-3.3,-23.55,-33.0,1662.0
1787131479.3143191,-2.571,3.5,9.764,-0.85,0.028,-0.515,-1.8,-25.05,-33.75,1729.0
1787131479.314344,-2.686,3.831,10.005,-1.669,0.09,-0.695,-2.55,-23.85,-33.0,1729.0
1787131479.3143551,-2.95,4.051,10.199,-3.005,0.087,-0.928,-4.35,-25.8,-33.75,1729.0
1787131479.5187027,0.587,-8.784,12.079,-2.505,-0.477,-0.118,-14.1,-32.85,-70.2,2163.0
1787131479.518727,-2.028,-5.109,6.826,-1.767,-1.145,-0.277,-14.25,-30.3,-73.35,49.0
1787131479.5187385,-1.207,-5.82,5.471,-0.877,-1.191,-0.107,-15.75,-30.3,-75.15,49.0
1787131479.724073,-2.444,-5.318,7.97,3.141,0.068,0.49,-13.5,-33.0,-68.85,9.0
1787131479.7240982,-2.954,-3.926,8.145,3.752,-0.045,0.578,-12.75,-34.2,-64.2,2036.0
1787131479.72411,-3.184,-2.452,8.37,3.913,-0.391,0.417,-10.8,-33.9,-61.35,2036.0
1787131479.9281287,-3.098,1.729,10.068,1.226,0.033,0.45,-4.95,-27.6,-37.95,2115.0
1787131479.9281528,-2.392,2.263,9.809,1.104,-0.063,0.287,-3.15,-25.2,-36.6,2115.0
1787131479.9281647,-2.09,1.899,9.996,0.877,-0.036,0.151,-3.3,-25.8,-36.3,2095.0
1787131480.1334772,-2.212,2.442,9.048,-0.056,0.093,-0.059,-2.55,-24.75,-34.2,1714.0
1787131480.1335013,-2.377,2.466,9.117,0.036,0.078,-0.026,-2.85,-24.3,-33.45,1714.0
1787131480.1335123,-2.413,2.38,9.05,0.027,0.052,-0.002,-1.95,-24.15,-34.35,1751.0
1787131480.3377862,-2.464,2.265,9.045,0.002,-0.002,0.007,-3.3,-21.9,-35.25,1653.0
1787131480.337811,-2.461,2.286,9.057,-0.008,0.001,0.007,-3.15,-24.9,-33.9,1653.0
1787131480.3378222,-2.488,2.219,9.045,-0.002,0.001,0.0,-3.45,-24.45,-33.9,1653.0
1787131480.5428426,-2.593,3.062,9.234,-0.028,-0.084,-0.004,-2.4,-24.9,-32.85,1747.0
1787131480.5428774,-2.863,3.407,9.692,-0.491,-0.104,-0.194,-3.45,-22.5,-32.85,1747.0
1787131480.5428884,-3.268,4.164,9.984,-1.63,-0.241,-0.561,-3.45,-24.9,-33.6,1747.0
1787131480.747191,-2.696,-6.677,9.203,-3.384,-0.286,-0.312,-12.45,-32.25,-70.35,2101.0
1787131480.9587429,-2.923,-2.356,9.519,3.03,-0.137,-0.043,-11.1,-34.8,-61.05,1867.0
1787131480.9587684,-2.409,-1.796,9.402,3.07,-0.082,0.061,-10.5,-31.5,-55.65,1867.0
1787131480.9587798,-1.856,-0.845,9.129,2.998,0.157,0.241,-9.3,-32.4,-52.5,1867.0
1787131481.1563745,-2.547,0.637,9.941,0.449,0.137,0.034,-6.0,-29.1,-40.2,2182.0
1787131481.1564007,-2.507,0.678,9.912,0.359,0.119,0.038,-7.35,-27.75,-40.35,2182.0
1787131481.3616593,-2.543,0.654,9.012,-0.042,0.006,0.002,-4.65,-28.35,-40.65,2154.0
1787131481.3616843,-2.614,0.584,9.0,0.057,0.048,0.047,-7.35,-27.45,-40.35,2154.0
1787131481.3616953,-2.753,0.711,9.012,0.12,0.024,0.064,-6.75,-28.8,-39.45,2154.0
1787131481.566804,-2.983,1.149,9.529,-0.016,-0.086,0.049,-5.1,-28.2,-39.0,2131.0
1787131481.56683,-2.825,1.355,9.608,-0.256,-0.085,-0.032,-6.3,-27.75,-40.35,2131.0
1787131481.566841,-2.978,1.621,9.675,-0.657,-0.062,-0.121,-6.6,-27.45,-39.0,2131.0
1787131481.7716916,-2.303,-5.368,8.909,-3.456,0.244,-0.295,-13.65,-32.85,-67.2,97.0
1787131481.771716,-2.686,-6.067,8.334,-2.677,-0.005,-0.234,-15.45,-32.55,-71.1,97.0
1787131481.771727,-1.559,-4.3,7.412,-1.857,-0.303,0.003,-12.75,-31.05,-72.3,97.0
1787131481.9763901,-2.313,-4.712,6.694,0.488,0.262,-0.019,-14.4,-30.9,-73.5,35.0
1787131481.976415,-2.847,-4.688,6.972,0.531,0.126,0.039,-13.65,-31.2,-74.55,35.0
1787131481.9764256,-2.176,-5.27,7.666,0.594,-0.022,-0.029,-14.7,-30.3,-72.3,28.0
1787131482.181268,-2.49,-3.582,8.976,1.884,0.01,0.458,-12.15,-33.9,-62.1,165.0
1787131482.1812925,-2.519,-3.455,8.854,2.448,-0.02,0.596,-11.1,-35.55,-59.55,165.0
1787131482.1813033,-2.682,-2.626,8.722,2.63,-0.126,0.494,-8.85,-34.35,-57.3,2150.0
1787131482.385687,-3.448,2.124,9.601,0.815,-0.047,0.311,-3.6,-25.8,-36.3,2164.0
1787131482.5906394,-2.71,1.448,8.739,-0.043,0.001,-0.013,-3.3,-24.3,-37.5,1993.0
1787131482.5906644,-2.761,1.465,8.763,-0.017,0.001,-0.006,-2.1,-26.25,-37.05,1993.0
1787131482.5906765,-2.863,1.417,8.873,0.031,0.001,0.004,-2.85,-27.75,-37.05,1993.0
1787131482.7958062,-3.005,1.93,9.39,0.108,0.002,0.007,-3.9,-27.15,-35.85,1866.0
1787131482.7958307,-2.952,2.272,9.474,-0.057,-0.027,-0.066,-3.6,-25.8,-37.05,1866.0
1787131482.7958443,-3.22,2.607,9.567,-0.703,-0.043,-0.218,-3.45,-26.85,-35.1,1866.0
1787131483.0003293,-1.98,-6.014,9.412,-3.239,0.137,-0.236,-10.35,-33.9,-63.6,2077.0
1787131483.0003536,-2.619,-4.951,8.045,-2.209,0.106,-0.325,-11.7,-34.2,-63.75,2077.0
1787131483.0003645,-2.332,-4.709,7.484,-1.673,-0.1,-0.307,-12.75,-34.5,-68.25,2077.0
1787131483.2056866,-2.222,-5.385,8.27,0.375,-0.06,0.167,-10.95,-33.45,-72.3,13.0
1787131483.2057118,-1.946,-5.148,8.248,0.633,0.049,0.222,-11.7,-32.55,-71.55,13.0
1787131483.2057226,-2.097,-5.239,8.418,0.789,0.171,0.209,-11.7,-32.55,-71.55,13.0
1787131483.4095836,-2.931,0.373,7.652,2.787,-0.107,0.412,-7.2,-31.5,-48.0,2160.0
1787131483.4096093,-2.624,0.517,8.246,2.258,-0.043,0.487,-5.55,-29.7,-45.9,2160.0
1787131483.40962,-2.775,0.833,8.689,1.826,0.066,0.427,-6.45,-28.8,-44.25,2160.0
1787131483.614516,-2.978,1.753,10.151,0.666,0.047,0.094,-2.55,-26.55,-37.05,2154.0
1787131483.6145403,-3.012,2.157,9.962,0.386,0.002,0.023,-5.7,-26.85,-37.95,1930.0
1787131483.6145518,-2.837,2.16,9.783,0.075,-0.042,-0.051,-3.9,-25.65,-36.15,1930.0
1787131483.8191073,-2.777,1.496,8.789,0.065,0.061,0.03,-4.95,-25.2,-36.15,2001.0
1787131483.819132,-2.868,1.532,8.832,0.074,0.045,0.046,-2.55,-26.55,-37.05,2001.0
1787131483.819143,-2.976,1.587,8.928,0.07,-0.006,0.05,-4.65,-26.4,-37.2,2001.0
1787131484.02389,-2.935,1.793,9.27,-0.026,-0.001,-0.005,-3.9,-26.1,-37.2,1952.0
1787131484.0239143,-2.94,2.167,9.304,-0.019,0.003,-0.023,-3.3,-26.25,-36.75,1952.0
1787131484.228656,-2.732,-5.133,7.887,-1.871,-0.053,-0.03,-11.1,-32.85,-70.65,1342.0
1787131484.2286804,-2.267,-4.594,6.632,-1.636,-0.348,-0.008,-11.25,-31.05,-71.55,1342.0
1787131484.2286918,-1.678,-5.239,6.725,-1.207,-0.392,0.061,-8.85,-31.95,-74.25,13.0
1787131484.4337945,-2.789,-5.914,8.511,2.003,0.262,0.022,-9.3,-33.9,-69.9,1.0
1787131484.4338193,-3.151,-4.882,8.631,2.694,-0.015,-0.074,-10.2,-33.75,-66.3,1.0
1787131484.433831,-3.575,-4.108,8.645,2.963,-0.18,0.031,-9.0,-32.55,-65.25,1.0
1787131484.6379561,-2.854,0.919,9.56,1.224,0.027,0.201,-5.1,-28.95,-41.55,2207.0
1787131484.6379845,-2.885,1.233,9.835,1.064,0.068,0.156,-4.35,-28.2,-41.85,2207.0
1787131484.6379964,-2.698,1.192,9.905,0.932,0.104,0.104,-2.85,-28.95,-39.6,2110.0
1787131484.8445601,-2.715,1.731,9.215,0.054,-0.011,0.008,-2.85,-25.8,-36.3,2068.0
1787131484.8445845,-2.643,1.674,9.06,0.101,0.005,0.038,-4.05,-27.45,-37.05,2068.0
1787131484.8446436,-2.679,2.023,8.971,0.103,0.007,-0.007,-3.9,-26.1,-35.85,2068.0
1787131485.0476985,-2.796,1.853,9.055,0.114,0.012,0.002,-3.45,-25.65,-34.35,1875.0
1787131485.0477233,-2.777,1.884,9.194,0.047,0.012,0.006,-3.9,-25.2,-35.1,1875.0
1787131485.0477343,-2.78,1.882,9.196,0.06,0.013,0.018,-3.3,-25.05,-36.0,1875.0
1787131485.252971,-2.94,2.873,9.833,-3.553,-0.147,-0.79,-5.55,-28.2,-41.1,2084.0
1787131485.2529953,-3.699,2.172,10.197,-4.162,-0.339,-0.868,-7.5,-30.6,-46.5,2084.0
1787131485.2530067,-2.172,-1.209,10.537,-4.353,-0.321,-0.806,-10.35,-31.95,-50.4,2084.0
1787131485.4573174,-1.13,-5.387,5.531,-1.044,-0.263,0.324,-14.25,-31.5,-74.85,77.0
1787131485.457342,-0.893,-5.562,6.318,-0.433,-0.047,0.268,-15.0,-30.3,-75.15,77.0
1787131485.4573529,-0.946,-5.674,6.314,0.089,0.094,0.138,-14.1,-30.45,-76.5,77.0
1787131485.6614935,-2.741,-4.882,8.322,2.46,0.686,0.193,-12.6,-32.85,-67.95,60.0
1787131485.86659,-2.847,1.769,10.082,0.592,-0.01,0.146,-4.2,-28.35,-37.95,2184.0
1787131485.8666158,-2.77,1.832,10.127,0.442,-0.006,0.094,-2.7,-27.6,-37.65,2071.0
1787131485.866628,-2.741,1.894,10.058,0.322,0.002,0.057,-4.2,-26.4,-36.9,2071.0
1787131486.0718815,-2.71,2.102,9.967,0.181,0.013,0.064,-3.15,-26.85,-35.85,2071.0
1787131486.0719066,-2.832,1.812,9.855,0.052,-0.011,0.072,-4.65,-27.15,-36.15,2071.0
1787131486.0719175,-2.799,1.798,9.622,-0.023,-0.024,0.037,-3.9,-25.2,-36.6,2071.0
1787131486.2762182,-2.727,2.016,9.404,0.026,-0.032,0.027,-1.65,-27.9,-36.9,2023.0
1787131486.2762423,-3.017,2.761,9.656,-0.372,-0.034,-0.101,-3.9,-26.4,-35.4,2052.0
1787131486.2762532,-3.012,2.849,9.754,-1.154,-0.05,-0.225,-4.8,-24.3,-37.05,2052.0
1787131486.4811394,-3.01,-4.985,9.036,-3.471,0.299,-0.705,-12.0,-34.5,-66.75,2142.0
1787131486.4811761,-3.266,-5.375,7.98,-2.496,-0.185,-0.605,-12.15,-33.15,-70.2,29.0
1787131486.4811828,-2.454,-5.361,6.965,-1.842,-0.318,-0.179,-12.9,-31.95,-72.75,29.0
1787131486.6856968,-2.351,-5.526,7.681,2.338,0.375,0.4,-12.45,-31.8,-70.8,94.0
1787131486.6857214,-2.667,-4.946,7.887,3.022,0.375,0.355,-12.6,-34.8,-66.6,54.0
1787131486.6857321,-3.287,-4.039,7.922,3.487,0.231,0.242,-11.25,-33.75,-65.55,54.0
1787131486.8903708,-3.393,1.769,9.867,1.061,0.23,0.147,-5.85,-28.2,-39.3,2179.0
1787131486.8903954,-3.378,1.453,10.274,0.727,0.109,0.086,-5.7,-28.8,-38.7,2098.0
1787131486.8904061,-2.99,1.365,10.259,0.564,0.024,0.117,-4.2,-26.4,-36.9,2098.0
1787131487.0952792,-2.828,1.511,9.196,-0.147,-0.009,-0.003,-3.15,-27.15,-36.15,2092.0
1787131487.0953038,-2.78,1.396,9.041,-0.115,-0.024,0.003,-5.7,-29.1,-37.2,2092.0
1787131487.0953155,-2.636,1.3,8.906,-0.137,-0.022,-0.005,-4.95,-28.35,-37.95,2041.0
1787131487.299765,-2.749,1.305,9.251,0.001,0.015,0.015,-5.7,-26.4,-36.6,2141.0
1787131487.2997909,-3.021,1.592,9.538,-0.094,-0.046,0.006,-4.05,-27.45,-37.8,1980.0
1787131487.5055182,-2.423,-5.176,7.429,-1.836,-0.239,0.285,-12.75,-33.0,-70.35,28.0
1787131487.5055428,-1.463,-5.476,6.788,-1.465,-0.36,0.14,-13.95,-31.05,-72.3,28.0
1787131487.505554,-1.195,-5.643,6.835,-0.832,-0.293,0.137,-15.0,-32.25,-73.35,28.0
1787131487.7102761,-2.61,-6.129,8.322,1.986,0.443,0.152,-12.75,-31.8,-70.35,0.0
1787131487.7103014,-2.847,-5.83,8.464,2.681,0.448,0.122,-11.7,-33.45,-67.8,0.0
1787131487.7103121,-3.196,-4.865,8.145,3.212,0.279,0.166,-14.1,-33.6,-64.65,0.0
1787131487.910665,-2.942,1.719,9.847,1.324,0.075,0.322,-6.6,-27.0,-39.6,2150.0
1787131487.9142385,-2.954,1.712,10.068,1.041,0.067,0.254,-6.3,-27.45,-37.5,2150.0
1787131487.9142632,-3.053,2.071,10.197,0.867,0.007,0.175,-5.55,-27.75,-37.05,2150.0
1787131488.1195526,-2.574,1.76,8.88,-0.046,0.003,0.04,-4.65,-25.65,-34.35,1910.0
1787131488.119577,-2.725,1.829,8.861,-0.021,0.023,0.057,-5.4,-26.1,-34.65,1910.0
1787131488.1195881,-2.789,1.841,8.796,-0.035,0.007,0.034,-5.1,-25.8,-35.55,1910.0
1787131488.3238728,-2.847,1.848,9.038,0.114,0.006,0.03,-5.1,-26.25,-34.5,1815.0
1787131488.3239522,-2.703,1.887,9.234,0.092,-0.034,0.018,-4.05,-27.0,-34.2,1815.0
1787131488.3239655,-2.624,1.899,9.182,0.064,-0.025,0.016,-4.05,-26.25,-34.5,1815.0
1787131488.5286663,-2.971,2.947,9.586,-2.443,-0.038,-0.601,-6.0,-27.6,-37.95,1815.0
1787131488.5286903,-2.828,1.978,10.111,-3.227,0.188,-0.765,-8.55,-30.15,-43.35,2205.0
1787131488.5287015,-3.091,1.638,9.888,-3.697,0.288,-0.823,-9.0,-32.25,-46.05,2205.0
1787131488.7336507,-2.593,-4.314,7.027,-0.633,-0.308,-0.031,-14.1,-33.9,-67.95,2205.0
1787131488.7336752,-2.248,-4.755,7.216,-0.01,-0.28,0.182,-14.25,-33.45,-67.8,59.0
1787131488.733687,-2.164,-4.254,6.965,0.618,-0.17,0.283,-13.95,-34.2,-68.25,59.0
1787131488.9369106,-2.959,-1.063,7.927,4.092,-0.281,0.746,-9.75,-32.25,-50.85,59.0
1787131489.143752,-2.763,2.784,9.234,-0.214,0.093,-0.162,-2.55,-23.1,-31.2,1035.0
1787131489.1437764,-2.686,2.634,9.021,-0.303,0.096,-0.187,-3.6,-23.85,-30.15,1035.0
1787131489.1437876,-2.626,2.483,8.921,-0.322,0.077,-0.16,-3.6,-24.3,-32.7,1035.0
1787131489.3479571,-2.789,2.1,9.007,-0.104,0.035,-0.038,-4.35,-25.05,-35.25,955.0
1787131489.3479826,-2.851,2.2,8.969,-0.053,0.028,-0.033,-3.9,-25.65,-33.9,955.0
1787131489.3479936,-3.002,2.052,9.05,-0.013,0.019,-0.001,-4.2,-25.2,-32.85,955.0
1787131489.5533385,-3.225,2.574,9.261,-1.102,-0.082,-0.138,-3.9,-26.1,-34.65,955.0
1787131489.553364,-3.27,2.586,9.309,-1.75,-0.151,-0.203,-5.55,-26.55,-35.55,955.0
1787131489.553375,-2.954,2.433,9.651,-2.366,-0.244,-0.408,-5.55,-27.75,-35.55,955.0
1787131489.7590728,-3.333,-4.041,8.04,-1.431,0.821,-0.377,-12.75,-35.7,-63.75,2145.0
1787131489.7590988,-3.673,-3.235,7.08,-1.266,0.332,-0.397,-13.35,-34.35,-65.1,2145.0
1787131489.75911,-3.577,-3.038,7.07,-1.175,-0.064,-0.342,-12.75,-34.95,-66.0,2145.0
1787131489.964898,-3.448,-4.101,8.758,1.032,-0.153,0.212,-12.45,-34.2,-63.75,68.0
1787131489.964923,-3.428,-3.883,8.748,1.249,-0.193,0.127,-12.45,-34.2,-63.75,68.0
1787131489.9649336,-3.539,-3.764,8.954,1.465,-0.213,0.016,-13.65,-33.6,-62.1,68.0
1787131490.167112,-3.232,0.941,9.199,1.44,0.044,0.293,-7.8,-31.2,-43.05,2228.0
1787131490.167137,-3.369,1.207,9.11,1.086,0.079,0.242,-7.95,-29.55,-42.0,2228.0
1787131490.1671479,-3.297,0.438,9.625,0.908,0.082,0.197,-7.8,-29.7,-41.55,2228.0
1787131490.3721414,-3.146,1.281,9.304,0.455,-0.014,0.179,-6.3,-25.8,-36.3,1927.0
1787131490.3721664,-2.971,1.35,9.158,0.495,0.02,0.182,-5.55,-26.55,-36.0,1927.0
1787131490.3721776,-3.005,1.551,8.978,0.52,0.017,0.173,-6.6,-25.8,-36.0,1927.0
1787131490.5746381,-3.223,2.265,9.024,0.226,0.006,0.067,-4.2,-25.2,-32.85,904.0
1787131490.781711,-3.316,2.591,9.103,-0.288,-0.018,-0.154,-3.3,-24.75,-31.2,856.0
1787131490.7817369,-3.326,2.66,9.287,-0.589,-0.019,-0.272,-4.65,-23.25,-32.85,856.0
1787131490.7817483,-3.287,2.78,9.354,-1.245,0.008,-0.349,-5.55,-25.5,-33.45,1017.0
1787131490.986168,-2.849,-4.693,8.622,-3.287,0.724,-0.371,-12.75,-33.75,-62.7,2211.0
1787131490.9861925,-3.915,-5.353,8.152,-2.618,0.442,-0.339,-14.1,-34.8,-67.2,82.0
1787131490.986203,-3.73,-4.594,7.046,-2.537,-0.279,0.346,-13.5,-33.45,-67.8,82.0
1787131491.191413,-2.909,-5.296,7.233,1.673,0.246,0.188,-13.5,-33.75,-70.8,8.0
1787131491.1914375,-3.218,-5.885,7.606,2.454,0.252,0.364,-15.75,-32.25,-69.3,8.0
1787131491.1914482,-3.256,-4.824,7.599,3.106,0.114,0.327,-12.6,-31.65,-66.6,232.0
1787131491.3952894,-3.371,0.934,10.357,1.18,0.078,0.28,-7.35,-28.95,-40.35,2226.0
1787131491.3953135,-3.61,1.003,10.477,0.782,0.072,0.218,-7.05,-28.5,-39.6,2226.0
1787131491.3953247,-3.318,1.267,10.458,0.572,0.03,0.108,-7.05,-28.5,-39.6,2112.0
1787131491.6008487,-3.024,1.233,9.072,0.012,0.003,0.042,-6.75,-29.1,-37.65,2039.0
1787131491.600885,-3.033,1.322,8.765,0.002,0.009,0.013,-6.45,-25.2,-37.65,2039.0
1787131491.600896,-3.031,1.223,8.882,-0.013,0.027,0.002,-6.75,-26.4,-37.95,1963.0
1787131491.8056002,-3.153,0.936,9.321,0.094,0.081,0.004,-6.0,-27.15,-38.4,2027.0
1787131491.8056257,-3.22,1.073,9.151,0.126,0.074,0.044,-6.6,-27.45,-37.05,2027.0
1787131491.8056366,-3.318,1.247,9.163,0.155,0.004,0.062,-6.75,-27.9,-36.9,2027.0
1787131492.0105648,-3.237,1.714,8.763,0.416,-0.037,0.228,-5.1,-26.25,-35.25,1836.0
1787131492.0105896,-3.266,1.738,8.827,0.516,-0.046,0.251,-4.65,-25.65,-34.65,1836.0
1787131492.0106006,-3.103,2.488,8.674,0.456,-0.073,0.205,-3.6,-24.75,-33.45,1836.0
1787131492.2147996,-3.493,2.816,10.022,-2.089,-0.079,-0.516,-5.55,-26.55,-34.95,933.0
1787131492.4199932,-2.085,-5.456,6.536,-0.682,-0.179,0.064,-12.0,-29.1,-73.65,35.0
1787131492.420266,-2.207,-5.133,6.213,-0.252,-0.064,0.176,-12.6,-31.2,-74.25,35.0
1787131492.420279,-1.927,-5.183,6.431,-0.109,-0.028,0.158,-12.45,-32.25,-75.6,35.0
1787131492.6241703,-2.911,-6.093,8.167,2.309,0.657,0.186,-11.7,-33.75,-68.25,68.0
1787131492.624228,-3.297,-4.511,7.626,3.025,0.682,0.194,-12.15,-33.9,-66.9,68.0
1787131492.6242378,-4.381,-2.456,7.4,3.384,0.438,0.069,-12.15,-35.1,-64.35,68.0
1787131492.8291001,-3.347,1.47,9.515,1.44,-0.143,0.313,-5.85,-28.2,-39.6,2104.0
1787131492.8291247,-3.086,1.681,9.972,1.16,-0.073,0.322,-6.0,-25.2,-38.7,2104.0
1787131492.8291357,-3.098,1.836,10.312,1.13,0.004,0.339,-4.95,-26.4,-37.95,2104.0
1787131493.0351176,-3.124,2.301,8.77,0.208,0.036,0.094,-3.45,-24.9,-32.55,2104.0
1787131493.035143,-2.921,2.282,8.619,0.16,0.017,0.069,-4.2,-24.45,-32.85,2104.0
1787131493.0351536,-2.935,2.468,8.531,0.034,0.004,0.029,-3.15,-25.65,-32.1,2104.0
1787131493.238807,-2.799,2.385,8.938,0.005,0.072,-0.071,-4.05,-23.55,-31.95,825.0
1787131493.2388318,-3.045,2.442,9.017,-0.015,0.105,-0.072,-2.55,-23.1,-31.5,825.0
1787131493.2388432,-3.259,2.595,9.098,-0.033,0.073,-0.074,-4.8,-23.55,-31.95,825.0
1787131493.4513988,-3.115,0.783,10.003,-4.291,0.262,-0.861,-7.8,-30.9,-46.35,1018.0
1787131493.4514225,-3.189,-1.283,9.938,-4.501,0.534,-0.832,-9.3,-33.6,-50.4,1018.0
1787131493.4514337,-3.127,-1.633,9.682,-4.413,0.769,-0.796,-9.75,-33.0,-53.1,2132.0
1787131493.6481817,-1.748,-5.744,6.345,-0.103,0.015,0.156,-15.0,-31.5,-75.9,0.0
1787131493.6482067,-2.473,-5.085,5.777,0.278,0.063,0.036,-12.9,-30.45,-75.75,0.0
1787131493.648218,-2.957,-4.712,6.079,0.357,-0.038,-0.03,-14.1,-31.65,-75.0,93.0
1787131493.8494024,-4.465,-3.108,8.174,3.336,-0.591,0.288,-11.55,-34.8,-59.85,29.0
1787131493.8593855,-3.431,-1.147,7.922,3.01,-0.608,0.327,-9.0,-32.55,-54.6,2160.0
1787131494.0578098,-2.777,2.294,9.675,0.779,0.063,0.269,-2.85,-27.75,-34.5,2206.0
1787131494.0578337,-3.005,2.65,9.464,0.611,0.051,0.246,-3.15,-25.65,-33.9,2206.0
1787131494.0578454,-3.39,2.782,9.421,0.495,0.024,0.175,-3.6,-26.55,-32.7,2206.0
1787131494.26243,-2.897,2.361,9.0,-0.161,-0.009,-0.049,-3.15,-26.4,-33.3,770.0
1787131494.2624545,-2.863,2.33,8.952,-0.152,0.052,-0.037,-2.85,-25.05,-29.7,770.0
1787131494.2624652,-3.062,2.234,8.89,-0.098,0.062,-0.02,-3.45,-25.65,-32.1,770.0
1787131494.4671376,-3.067,2.344,9.007,0.061,0.001,-0.015,-3.15,-25.65,-33.6,844.0
1787131494.467162,-3.014,2.44,9.062,0.003,0.023,-0.059,-2.7,-24.9,-32.1,844.0
1787131494.4671729,-3.093,2.579,9.143,-0.159,0.045,-0.127,-3.45,-25.65,-33.6,844.0
1787131494.672648,-3.1,-0.347,10.362,-3.621,0.399,-0.727,-9.0,-33.45,-49.8,2203.0
1787131494.672673,-3.074,-1.781,9.445,-3.675,0.512,-0.759,-10.2,-35.25,-54.9,2203.0
1787131494.6726851,-3.326,-2.093,8.935,-3.641,0.617,-0.787,-9.75,-35.25,-56.1,2203.0
1787131494.8772602,-2.322,-4.934,6.306,-0.026,-0.022,0.053,-15.15,-33.15,-74.25,67.0
1787131494.877285,-2.397,-5.42,6.658,0.43,0.054,0.107,-13.65,-33.6,-74.25,67.0
1787131494.8772962,-2.66,-5.502,6.493,0.549,-0.112,0.014,-14.85,-31.65,-73.95,67.0
1787131495.0825717,-4.159,-1.97,7.532,3.213,-0.333,0.102,-11.25,-34.2,-59.7,1266.0
1787131495.0978198,-2.887,-1.413,8.313,2.745,-0.266,0.488,-8.55,-33.9,-52.95,1266.0
1787131495.2866845,-3.038,1.422,9.941,1.264,-0.051,0.287,-5.7,-27.6,-38.7,2206.0
1787131495.2867095,-2.983,1.597,9.728,1.158,0.002,0.298,-4.8,-26.55,-36.75,2017.0
1787131495.286721,-2.945,1.829,9.584,1.053,0.08,0.328,-5.85,-28.5,-35.25,2017.0
1787131495.4909194,-3.34,2.081,8.792,0.137,0.028,0.096,-4.95,-25.65,-33.6,897.0
1787131495.490944,-3.175,2.09,8.818,0.194,-0.063,0.124,-3.45,-24.9,-33.3,897.0
1787131495.6957843,-3.079,2.327,8.945,-0.141,0.008,-0.041,-4.65,-24.15,-33.3,776.0
1787131495.6958094,-3.141,2.466,8.957,-0.161,0.024,-0.045,-2.55,-25.8,-32.25,800.0
1787131495.9011922,-3.132,0.886,9.728,-3.527,0.151,-0.677,-8.7,-32.25,-48.0,1757.0
1787131495.901218,-3.282,0.194,9.826,-3.686,0.18,-0.687,-8.55,-33.9,-48.45,1757.0
1787131495.9012291,-2.981,-2.631,9.469,-3.569,0.261,-0.603,-9.45,-33.0,-54.15,2151.0
1787131496.1055684,-3.29,-4.068,6.96,-0.542,0.066,-0.233,-13.95,-33.45,-68.55,64.0
1787131496.1055963,-3.165,-4.281,7.13,-0.383,0.033,-0.211,-14.4,-32.85,-68.7,64.0
1787131496.1056073,-3.658,-5.224,6.816,0.031,0.049,-0.045,-13.5,-32.55,-68.55,46.0
1787131496.3105235,-3.505,-4.709,8.657,1.894,0.069,0.227,-12.9,-33.9,-63.6,128.0
1787131496.310549,-3.515,-4.381,8.389,2.492,0.026,0.346,-12.75,-34.2,-60.75,128.0
1787131496.31056,-3.649,-3.701,8.049,3.12,-0.032,0.575,-12.6,-35.85,-59.85,128.0
1787131496.5148962,-3.74,2.512,9.498,1.704,0.146,0.517,-5.4,-26.1,-36.15,1997.0
1787131496.5149205,-4.094,2.825,9.742,1.212,-0.052,0.384,-3.6,-25.8,-34.95,1997.0
1787131496.5149314,-3.687,2.911,9.96,0.916,-0.117,0.33,-4.95,-25.2,-31.05,1997.0
1787131496.7195897,-3.057,2.772,8.863,-0.28,-0.046,0.015,-3.3,-23.1,-29.7,755.0
1787131496.7196152,-3.129,2.705,8.744,-0.272,-0.092,0.03,-4.05,-23.85,-31.5,755.0
1787131496.7196274,-2.88,2.576,8.413,-0.256,-0.108,-0.008,-4.2,-24.45,-32.1,755.0
1787131496.9244115,-2.727,2.418,8.863,-0.124,0.037,-0.078,-2.85,-23.55,-31.2,842.0
1787131496.9244366,-2.842,2.349,8.892,-0.065,0.065,-0.031,-4.65,-25.2,-31.8,842.0
1787131496.9244473,-2.926,2.229,9.029,0.028,0.027,0.024,-4.05,-23.85,-32.7,842.0
1787131497.1275392,-3.11,3.661,9.692,-1.893,-0.358,-0.246,-4.95,-24.9,-33.6,927.0
1787131497.334482,-1.872,-5.181,6.316,-0.041,0.098,0.039,-12.15,-32.4,-75.3,29.0
1787131497.3345063,-1.992,-4.824,6.088,0.233,0.087,0.003,-12.75,-32.25,-72.9,88.0
1787131497.3345177,-2.286,-4.846,6.364,0.344,0.023,-0.04,-12.6,-31.2,-73.5,88.0
1787131497.5388842,-3.361,-3.78,8.715,2.696,0.078,0.078,-11.55,-33.9,-62.85,10.0
1787131497.5389094,-3.498,-2.641,8.404,2.816,-0.113,-0.071,-11.1,-35.1,-62.1,1977.0
1787131497.5389204,-3.134,-1.065,8.152,2.464,-0.194,-0.087,-11.7,-34.95,-56.4,1977.0
1787131497.744095,-3.053,0.74,9.629,0.528,-0.051,0.077,-8.85,-29.7,-43.65,2191.0
1787131497.7441196,-2.993,0.376,9.931,0.415,-0.01,0.032,-7.8,-28.5,-41.1,2193.0
1787131497.7441306,-2.902,0.565,9.886,0.375,0.079,0.075,-8.1,-29.25,-41.1,2193.0
1787131497.9488928,-3.098,1.085,9.038,0.368,-0.01,0.054,-6.45,-28.8,-38.7,2153.0
1787131497.9489174,-3.079,1.142,8.803,0.194,0.009,0.031,-8.7,-28.35,-38.7,2155.0
1787131497.9489286,-2.954,0.958,9.012,0.155,0.078,0.031,-6.45,-26.85,-38.4,2155.0
1787131498.1532807,-3.275,1.343,9.0,0.333,0.074,0.077,-6.0,-26.85,-36.6,2028.0
1787131498.153305,-3.282,1.329,9.17,0.339,0.052,0.067,-6.6,-26.55,-37.05,1806.0
1787131498.1533155,-3.177,1.489,9.122,0.32,0.007,0.089,-5.4,-26.55,-37.05,1806.0
1787131498.357866,-3.048,1.956,9.275,0.037,-0.016,0.0,-6.3,-26.25,-33.9,1806.0
1787131498.3578923,-2.907,1.865,9.249,0.006,0.019,-0.005,-5.4,-26.1,-35.1,1806.0
1787131498.357903,-3.089,1.975,9.352,0.007,0.026,-0.015,-4.95,-26.4,-35.1,1806.0
1787131498.5626712,-3.249,2.193,9.361,-0.089,-0.005,-0.059,-5.85,-26.25,-34.95,1806.0
1787131498.5626957,-3.438,2.437,9.44,-0.393,-0.054,-0.153,-5.85,-26.55,-32.7,1806.0
1787131498.562707,-3.474,2.571,9.479,-0.962,-0.079,-0.273,-6.0,-25.2,-35.1,1806.0
1787131498.7672188,-2.332,-5.274,6.938,0.912,-0.056,0.018,-14.1,-31.95,-72.0,5.0
1787131498.7672427,-3.311,-5.454,6.519,0.994,-0.134,0.13,-12.9,-33.6,-71.7,5.0
1787131498.767254,-2.988,-5.315,7.527,1.112,-0.158,0.118,-16.2,-33.75,-70.8,5.0
1787131498.972278,-3.098,-5.653,8.001,1.559,-0.061,0.264,-12.9,-33.9,-69.15,81.0
1787131498.9723024,-3.333,-5.181,7.894,2.208,0.014,0.453,-14.1,-32.4,-70.2,81.0
1787131498.9723132,-3.745,-3.893,7.934,2.716,0.014,0.374,-12.6,-34.8,-64.65,81.0
1787131499.177334,-3.153,1.736,9.21,0.174,0.038,0.111,-4.8,-26.25,-34.95,1801.0
1787131499.1773589,-3.127,1.808,9.127,0.135,0.007,0.138,-5.4,-25.2,-34.65,1801.0
1787131499.1773698,-3.187,1.721,9.021,0.17,-0.026,0.129,-5.55,-25.5,-34.2,1801.0
1787131499.3823738,-3.091,1.757,8.918,0.204,-0.034,0.131,-4.2,-25.65,-33.3,1801.0
1787131499.3823984,-3.136,2.023,9.06,0.128,-0.044,0.112,-4.05,-25.5,-34.2,1801.0
1787131499.3824098,-3.136,2.112,9.067,0.05,-0.035,0.057,-3.9,-24.15,-32.85,1801.0
1787131499.5871563,-3.105,1.925,9.17,-0.114,-0.019,0.034,-3.45,-26.1,-34.35,1016.0
1787131499.587181,-3.22,1.994,9.232,-0.119,-0.046,0.105,-3.9,-25.2,-33.6,1016.0
1787131499.587254,-3.175,2.306,9.268,-0.243,-0.126,0.176,-3.3,-25.8,-34.2,1016.0
1787131499.791862,-2.677,1.348,9.316,-2.008,0.226,-0.12,-4.95,-29.85,-43.2,2196.0
1787131499.7918868,-2.696,0.371,9.522,-2.424,0.432,-0.242,-4.8,-31.2,-45.9,2196.0
1787131499.7918975,-2.734,0.429,9.395,-2.613,0.603,-0.375,-5.1,-33.6,-49.65,2196.0
1787131499.9961078,-3.57,-4.614,7.563,-2.642,0.104,0.25,-11.7,-33.0,-70.35,2196.0
1787131499.9961329,-3.464,-2.88,6.675,-2.158,-0.005,-0.045,-14.1,-32.4,-73.5,97.0
1787131499.9961438,-3.089,-6.543,7.3,-1.47,-0.026,-0.103,-12.9,-31.65,-75.75,97.0
1787131500.202656,-2.94,-5.782,7.527,2.168,0.128,0.419,-12.0,-31.8,-71.1,79.0
1787131500.2026806,-3.385,-4.994,7.408,2.932,0.136,0.269,-11.1,-33.9,-68.4,55.0
1787131500.2026916,-4.164,-3.115,7.408,2.84,-0.067,0.234,-10.95,-33.45,-64.8,55.0
1787131500.4041283,-3.268,1.35,9.127,1.871,0.11,0.411,-7.8,-28.5,-40.8,2186.0
1787131500.6103232,-3.232,3.352,8.796,-0.2,-0.067,0.048,-1.8,-22.35,-27.15,654.0
1787131500.6103475,-3.16,3.335,8.674,-0.247,-0.052,0.045,-2.7,-22.95,-28.8,654.0
1787131500.6103582,-3.16,3.199,8.6,-0.231,-0.055,0.034,-2.4,-22.2,-27.75,654.0
1787131500.8151472,-3.031,2.847,8.535,-0.016,0.012,-0.031,-1.2,-22.95,-29.85,678.0
1787131500.8151715,-3.055,2.82,8.576,-0.014,-0.009,-0.024,-3.15,-23.25,-29.25,678.0
1787131500.8151824,-3.005,2.828,8.66,-0.047,-0.034,-0.023,-1.2,-21.75,-29.55,678.0
1787131501.0200217,-3.062,3.44,8.993,-1.093,-0.037,-0.165,-2.7,-24.45,-31.35,730.0
1787131501.0200448,-3.115,3.361,9.057,-1.616,0.029,-0.264,-1.8,-24.3,-30.45,730.0
1787131501.0200558,-3.304,2.818,9.55,-2.248,0.114,-0.385,-1.35,-24.75,-32.7,730.0
1787131501.2249174,-4.642,-3.603,8.279,-2.666,0.332,-0.466,-11.7,-33.75,-62.25,1840.0
1787131501.2249415,-4.228,-3.457,7.87,-2.308,-0.245,-0.572,-11.7,-34.5,-64.2,1840.0
1787131501.2249525,-3.812,-3.572,7.539,-2.072,-0.743,-0.536,-11.85,-33.6,-65.85,1840.0
1787131501.430101,-2.452,-5.203,6.965,0.136,-0.173,0.058,-12.0,-32.55,-74.4,51.0
1787131501.4301262,-2.502,-5.179,6.95,0.292,-0.096,0.007,-11.55,-32.4,-72.45,51.0
1787131501.4301376,-3.179,-5.394,7.535,0.499,0.003,0.036,-11.55,-32.4,-72.45,51.0
1787131501.6341217,-3.871,-2.693,7.908,2.348,0.106,0.039,-8.7,-34.95,-62.7,102.0
1787131501.6341455,-3.934,-2.547,8.382,2.416,-0.075,0.076,-9.3,-33.6,-60.6,102.0
1787131501.6341562,-3.661,-2.263,8.155,2.594,-0.231,0.188,-9.3,-33.9,-58.5,102.0
1787131501.8389747,-3.036,2.514,9.352,1.908,0.122,0.409,-3.6,-27.45,-35.25,1830.0
1787131501.8389997,-2.804,2.433,9.342,1.77,0.153,0.368,-3.3,-26.25,-31.95,1830.0
1787131501.8390105,-3.072,3.179,9.335,1.73,0.187,0.432,-3.3,-24.3,-30.9,1830.0
1787131502.0438,-2.959,3.874,8.961,-0.165,-0.012,0.03,-0.9,-22.5,-24.75,667.0
1787131502.0438254,-3.057,3.74,8.602,-0.24,0.027,0.015,-1.05,-21.9,-27.45,667.0
1787131502.2487218,-2.998,3.409,8.562,-0.004,-0.034,0.009,-1.95,-21.45,-26.55,683.0
1787131502.2487464,-3.074,3.464,8.665,-0.052,-0.054,0.013,-1.8,-22.35,-27.9,683.0
1787131502.2487576,-3.091,3.531,8.813,-0.134,-0.107,0.016,-1.65,-21.45,-28.05,728.0
1787131502.4539094,-2.703,1.446,9.91,-4.223,0.308,-0.727,-7.35,-32.85,-45.6,837.0
1787131502.4539347,-3.496,-0.543,9.45,-3.976,0.401,-0.553,-8.55,-33.6,-49.2,2145.0
1787131502.4539454,-3.091,-1.748,9.44,-3.66,0.42,-0.475,-7.05,-33.9,-54.75,2145.0
1787131502.6587675,-1.422,-4.958,7.001,-1.303,-0.171,-0.295,-10.35,-33.6,-71.7,64.0
1787131502.6587925,-0.939,-3.843,7.705,-0.738,0.12,-0.009,-11.7,-33.0,-73.35,64.0
1787131502.6588035,-2.105,-5.703,6.974,-0.187,0.162,0.053,-12.15,-31.2,-73.5,73.0
1787131502.863303,-2.863,-5.083,8.442,0.815,0.172,0.116,-10.95,-33.75,-71.55,106.0
1787131502.8633277,-2.622,-5.361,8.399,1.199,0.345,0.149,-11.7,-33.75,-71.55,106.0
1787131502.8633387,-2.607,-5.351,8.408,1.73,0.546,0.219,-10.2,-34.5,-68.55,39.0
1787131503.0682433,-2.552,-0.287,8.808,2.272,0.064,0.146,-6.3,-31.65,-46.65,2098.0
1787131503.0682685,-2.722,-0.045,9.191,2.26,0.312,0.295,-7.35,-29.7,-42.6,2205.0
1787131503.2724187,-4.049,2.533,9.795,1.119,0.144,0.243,-3.45,-25.65,-32.1,732.0
1787131503.2724423,-4.025,2.916,9.756,0.89,-0.022,0.229,-4.65,-22.95,-29.55,732.0
1787131503.272453,-3.709,2.612,9.677,0.778,-0.08,0.242,-3.3,-25.5,-30.15,732.0
1787131503.4772315,-3.268,3.428,8.341,-0.009,-0.083,0.084,-2.7,-22.2,-27.3,648.0
1787131503.477255,-3.357,3.361,8.272,-0.037,-0.106,0.075,-2.7,-22.5,-25.8,648.0
1787131503.4772666,-3.223,3.357,8.25,-0.073,-0.119,0.058,-2.7,-22.2,-27.0,648.0
1787131503.6803133,-3.139,3.62,8.729,0.068,-0.066,-0.002,-3.15,-20.55,-27.0,658.0
1787131503.8873844,-3.836,-3.273,7.008,-1.614,-0.526,-0.27,-10.95,-33.0,-63.0,2149.0
1787131503.8874087,-3.354,-3.625,6.905,-1.265,-0.776,-0.2,-13.65,-33.9,-65.1,2149.0
1787131504.0919592,-3.268,-4.623,8.279,0.902,-0.177,0.274,-11.85,-35.85,-67.2,85.0
1787131504.0921702,-3.062,-4.63,8.497,1.212,-0.118,0.263,-9.6,-33.15,-63.9,85.0
1787131504.0921874,-3.311,-4.338,8.622,1.614,0.032,0.16,-12.15,-34.8,-65.85,85.0
1787131504.2963636,-2.713,0.63,8.677,2.135,0.238,0.47,-5.55,-30.9,-42.3,2187.0
1787131504.2963889,-3.278,0.888,8.875,2.016,0.165,0.399,-5.55,-28.95,-39.3,2187.0
1787131504.2963998,-3.091,1.125,9.342,1.944,0.076,0.363,-4.35,-28.2,-37.8,2187.0
1787131504.5015926,-3.407,3.637,9.395,0.375,-0.006,0.198,-3.3,-21.9,-26.4,664.0
1787131504.5016174,-3.338,3.68,9.196,0.231,-0.003,0.129,-2.55,-21.9,-26.4,664.0
1787131504.5016294,-3.182,3.577,9.091,0.159,0.016,0.112,-1.95,-21.45,-25.5,664.0
1787131504.7064111,-3.213,3.326,8.226,-0.058,-0.007,-0.009,-1.8,-23.1,-27.9,666.0
1787131504.7064362,-3.139,3.27,8.143,-0.048,-0.003,-0.027,-1.95,-21.0,-26.55,666.0
1787131504.706447,-3.144,3.201,8.21,-0.047,0.014,-0.045,-1.8,-21.6,-25.65,666.0
1787131504.9080567,-3.405,4.073,9.23,-0.993,-0.119,-0.124,-1.8,-23.1,-27.45,662.0
1787131504.908084,-3.134,3.687,9.67,-1.726,-0.192,-0.147,-2.85,-23.85,-30.15,662.0
1787131504.910643,-3.208,3.354,9.984,-2.21,-0.161,-0.076,-2.7,-25.2,-31.05,751.0
1787131505.122749,-4.223,-3.699,8.531,-3.048,0.206,-0.493,-8.1,-34.8,-66.15,2003.0
1787131505.1227746,-4.168,-4.029,7.827,-2.571,-0.263,-0.528,-9.3,-33.15,-66.9,2003.0
1787131505.122786,-2.54,-4.496,6.589,-2.162,-0.5,-0.513,-10.5,-33.0,-71.1,0.0
1787131505.318615,-2.65,-5.356,7.424,0.872,-0.094,0.071,-11.1,-33.6,-72.45,78.0
1787131505.5253854,-3.031,0.23,9.261,1.701,0.146,0.368,-7.35,-31.65,-43.65,2212.0
1787131505.5254111,-3.22,0.285,9.409,1.654,0.073,0.49,-6.0,-29.55,-42.45,2212.0
1787131505.5254226,-3.235,0.757,9.436,1.607,-0.062,0.512,-6.0,-30.3,-40.2,2212.0
1787131505.7295463,-3.369,3.194,9.041,0.711,0.107,0.14,-2.4,-25.65,-30.6,722.0
1787131505.7295716,-3.361,3.014,9.12,0.517,0.098,0.076,-2.4,-24.9,-29.55,722.0
1787131505.7295823,-3.316,3.383,9.06,0.333,0.069,0.026,-1.8,-21.9,-28.95,722.0
1787131505.934564,-3.194,3.127,8.574,-0.087,-0.046,-0.002,-2.7,-23.25,-30.3,653.0
1787131505.9345875,-3.029,3.026,8.497,-0.094,-0.04,-0.016,-3.15,-23.25,-28.05,653.0
1787131505.934599,-3.007,3.048,8.519,-0.067,-0.009,-0.018,-2.55,-22.8,-27.9,653.0
1787131506.1436496,-3.361,3.61,9.12,-0.383,-0.214,0.089,-1.65,-24.9,-29.55,725.0
1787131506.1436753,-3.175,4.192,9.555,-0.985,-0.299,-0.017,-2.85,-23.55,-30.15,725.0
1787131506.1436863,-2.746,3.527,9.948,-1.854,-0.347,-0.167,-2.85,-22.8,-31.2,725.0
1787131506.3501253,-3.998,-3.95,8.337,-2.989,0.486,-0.546,-9.75,-34.95,-62.25,1843.0
1787131506.3501503,-4.228,-4.551,8.076,-2.398,-0.018,-0.493,-10.8,-33.6,-66.6,1843.0
1787131506.350161,-3.618,-4.295,7.099,-1.821,-0.384,-0.397,-10.95,-34.95,-67.8,1843.0
1787131506.5510733,-2.945,-3.757,7.017,0.548,-0.064,0.09,-11.55,-33.15,-70.65,12.0
1787131506.551098,-2.823,-4.42,7.508,0.668,-0.112,0.213,-10.2,-34.5,-69.3,12.0
1787131506.5511098,-2.88,-4.848,8.045,0.96,-0.179,0.266,-11.55,-34.35,-68.7,66.0
1787131506.7592225,-2.813,-0.096,9.294,1.699,-0.043,0.256,-6.3,-31.95,-45.9,2168.0
1787131506.7592425,-2.708,0.002,9.424,1.579,0.096,0.194,-5.85,-30.45,-45.9,2168.0
1787131506.7592485,-2.902,0.175,9.457,1.522,0.186,0.179,-6.0,-30.3,-42.45,2168.0
1787131506.9648247,-3.108,1.911,9.309,0.758,0.07,0.225,-3.45,-26.4,-34.35,2103.0
1787131507.1747077,-3.024,2.811,8.861,0.026,0.007,0.031,-1.8,-24.75,-30.9,778.0
1787131507.1747327,-2.911,2.782,8.842,0.012,-0.032,0.035,-2.1,-23.55,-29.4,778.0
1787131507.1748142,-2.966,2.847,8.775,0.014,-0.03,0.03,-2.85,-24.75,-30.9,778.0
1787131507.382087,-3.445,2.787,9.45,-1.852,-0.047,-0.355,-4.2,-25.65,-32.55,820.0
1787131507.3821115,-3.146,2.246,9.507,-2.165,0.01,-0.446,-4.65,-26.1,-36.15,820.0
1787131507.3821225,-2.945,2.136,9.68,-2.471,0.095,-0.534,-5.55,-28.2,-38.55,820.0
1787131507.5901988,-3.266,-4.027,8.138,-2.029,-0.277,-0.454,-12.15,-33.9,-66.15,2156.0
1787131507.5902297,-3.175,-4.324,7.535,-1.633,-0.401,-0.338,-13.5,-34.2,-67.5,2156.0
1787131507.590236,-2.605,-4.76,7.331,-1.243,-0.352,-0.179,-11.7,-34.2,-69.3,2156.0
1787131507.7976692,-2.971,-4.503,7.937,0.779,0.062,0.082,-10.5,-33.0,-68.25,35.0
1787131507.7976933,-3.129,-4.752,8.164,1.037,0.162,0.071,-11.25,-33.45,-67.05,35.0
1787131507.7977042,-3.548,-4.702,8.215,1.403,0.187,0.085,-12.0,-34.5,-66.0,35.0
1787131508.0061367,-2.502,1.288,8.806,2.228,0.079,0.398,-7.2,-30.6,-43.2,2193.0
1787131508.006162,-2.571,1.367,9.275,1.917,0.218,0.46,-8.1,-30.15,-41.55,2193.0
1787131508.006173,-2.907,1.372,9.263,1.852,0.219,0.527,-6.3,-27.45,-41.1,2193.0
1787131508.2131484,-3.005,3.29,9.555,0.804,0.091,0.404,-2.4,-23.7,-28.5,750.0
1787131508.2131758,-3.335,3.792,9.28,0.634,-0.037,0.33,-1.95,-22.95,-28.05,750.0
1787131508.2131867,-2.928,3.718,8.978,0.385,-0.087,0.244,-1.8,-22.8,-27.45,750.0
1787131508.4213243,-2.875,3.103,8.732,-0.07,-0.013,-0.039,-1.95,-22.2,-28.05,722.0
1787131508.4213502,-2.895,3.165,8.799,-0.045,-0.034,-0.018,-2.7,-22.5,-28.5,722.0
1787131508.4213612,-2.83,3.249,8.789,-0.018,-0.03,-0.009,-0.9,-23.25,-27.3,722.0
1787131508.6272018,-3.194,3.766,9.017,-0.321,-0.068,-0.131,-0.9,-22.95,-28.5,742.0
1787131508.836832,-6.297,-11.238,5.818,-1.03,-0.622,0.245,-14.1,-33.6,-69.45,1984.0
1787131508.8368633,-1.8,-3.78,6.845,-0.374,-0.486,0.071,-13.2,-32.25,-69.6,68.0
1787131508.8368752,-1.597,-4.061,6.567,0.142,-0.229,-0.006,-13.95,-33.0,-70.8,68.0
1787131509.0447311,-3.582,-2.547,8.614,2.555,-0.169,0.13,-11.85,-34.8,-61.35,154.0
1787131509.0447562,-3.467,-1.678,8.416,2.316,-0.239,0.146,-11.7,-34.95,-57.15,2146.0
1787131509.0447683,-3.232,-1.76,8.966,2.138,-0.187,0.362,-11.1,-33.9,-55.5,2146.0
1787131509.2524362,-3.199,2.195,9.558,1.401,0.147,0.473,-4.95,-26.1,-33.6,2201.0
1787131509.2524612,-2.89,2.236,9.658,1.382,0.084,0.401,-4.05,-24.75,-33.45,1009.0
1787131509.252473,-2.847,2.358,9.752,1.398,0.109,0.345,-2.55,-24.75,-33.0,1009.0
1787131509.4605885,-2.696,3.177,8.835,-0.031,0.023,0.029,-1.8,-23.1,-27.45,730.0
1787131509.460613,-2.856,3.199,8.765,-0.097,0.027,-0.003,-1.65,-23.25,-28.5,746.0
1787131509.460625,-2.916,3.184,8.653,-0.15,0.008,-0.026,-2.7,-22.2,-27.75,746.0
1787131509.6687627,-2.84,2.897,8.636,-0.032,0.01,-0.031,-2.4,-22.2,-29.85,745.0
1787131509.6687887,-2.873,2.954,8.648,-0.024,-0.002,-0.014,-2.1,-21.9,-28.65,745.0
1787131509.6688006,-2.954,2.938,8.751,-0.035,-0.028,-0.034,-1.95,-23.7,-28.05,750.0
1787131509.8765607,-2.998,2.401,9.419,-1.87,0.071,-0.472,-4.65,-26.1,-34.65,771.0
1787131509.8765857,-3.045,1.757,9.74,-1.965,0.072,-0.526,-4.65,-27.9,-37.65,771.0
1787131509.8765967,-2.847,1.537,9.661,-2.008,0.107,-0.564,-5.7,-29.55,-40.65,2018.0
1787131510.084554,-3.843,-4.587,8.14,-2.541,0.134,-0.467,-12.15,-35.55,-66.9,2018.0
1787131510.0845788,-3.508,-4.053,7.46,-2.21,-0.523,0.236,-10.95,-35.25,-67.05,2018.0
1787131510.0845897,-3.048,-3.326,8.04,-1.776,-0.435,-0.032,-13.2,-33.75,-71.1,2018.0
1787131510.2902715,-3.199,-6.084,7.676,1.404,-0.105,0.267,-12.0,-34.5,-70.35,85.0
1787131510.5014813,-3.354,1.214,10.065,0.702,0.119,0.162,-5.55,-29.7,-37.8,2098.0
1787131510.501506,-3.153,1.24,10.07,0.78,0.048,0.18,-5.55,-27.45,-37.8,2098.0
1787131510.5015173,-2.761,1.894,9.725,0.705,-0.041,0.11,-6.3,-27.75,-35.25,2098.0
1787131510.707918,-2.938,2.028,8.744,0.117,0.03,0.092,-5.55,-28.2,-31.95,1266.0
1787131510.7079432,-3.201,1.86,8.918,0.194,0.007,0.109,-5.4,-27.15,-34.65,1266.0
1787131510.7079544,-3.278,2.035,8.892,0.21,-0.043,0.055,-3.45,-26.1,-35.85,1266.0
1787131510.9151955,-3.127,2.14,9.096,0.12,-0.02,0.069,-4.65,-25.2,-32.85,866.0
1787131510.9152188,-3.031,2.394,8.993,0.069,-0.06,0.035,-3.9,-26.1,-32.85,866.0
1787131510.91523,-2.952,2.181,8.947,0.023,0.006,0.021,-4.05,-26.55,-31.95,866.0
1787131511.1236205,-3.144,2.351,9.658,-2.78,0.091,-0.577,-5.55,-28.5,-39.0,2087.0
1787131511.1236458,-3.146,1.776,9.893,-3.355,0.194,-0.628,-6.75,-29.1,-40.2,2087.0
1787131511.1236575,-3.601,0.804,9.735,-3.773,0.226,-0.72,-7.5,-33.0,-46.5,2087.0
1787131511.3315551,-1.822,-4.836,6.749,-1.661,-0.435,-0.015,-12.9,-33.15,-71.7,2087.0
1787131511.331583,-2.437,-4.915,6.709,-1.116,-0.3,0.038,-13.35,-33.15,-72.75,17.0
1787131511.3315945,-2.167,-5.289,6.845,-0.525,-0.168,0.184,-12.15,-34.35,-72.45,17.0
1787131511.539776,-3.096,-4.53,7.769,0.775,0.003,0.054,-12.15,-33.6,-70.95,35.0
1787131511.539801,-3.816,-5.746,8.373,1.059,0.05,0.147,-10.8,-34.35,-70.2,35.0
1787131511.5398118,-3.393,-4.951,8.425,1.36,0.077,0.064,-12.9,-35.85,-69.45,71.0
1787131511.747196,-2.775,0.764,8.377,2.429,-0.16,0.51,-6.75,-32.25,-43.5,2139.0
1787131511.7472212,-2.547,1.496,8.507,2.183,-0.021,0.558,-6.6,-28.95,-39.0,2181.0
1787131511.7472322,-2.787,1.788,9.155,1.952,0.0,0.48,-6.45,-28.8,-37.2,2181.0
1787131511.9529104,-3.194,3.819,9.622,0.333,0.012,0.166,-0.9,-24.15,-26.25,821.0
1787131512.1625059,-2.758,3.072,8.552,-0.023,0.002,-0.063,-1.2,-22.5,-28.8,742.0
1787131512.1625326,-2.777,3.067,8.566,-0.011,-0.001,-0.053,-1.2,-22.5,-28.8,742.0
1787131512.1625445,-2.825,3.108,8.703,0.023,0.007,-0.029,-1.95,-23.25,-28.05,742.0
1787131512.370771,-2.89,2.818,9.828,-2.479,0.154,-0.648,-3.6,-27.45,-33.45,845.0
1787131512.3707962,-2.971,1.946,9.957,-2.687,0.289,-0.749,-4.35,-28.95,-37.05,845.0
1787131512.370808,-3.211,1.446,9.773,-2.915,0.327,-0.802,-6.0,-31.8,-39.9,845.0
1787131512.5781999,-3.187,-3.982,7.884,-1.348,-0.192,-0.247,-11.55,-34.35,-63.6,2205.0
1787131512.5782244,-2.729,-4.3,7.427,-0.928,-0.285,-0.142,-12.45,-35.25,-65.55,2205.0
1787131512.5782375,-2.689,-4.357,7.137,-0.5,-0.278,0.072,-13.65,-33.9,-67.95,2205.0
1787131512.78866,-3.692,-4.058,8.703,1.582,-0.095,0.142,-11.1,-35.85,-62.1,92.0
1787131512.7886853,-3.531,-3.859,8.643,2.025,-0.184,0.2,-12.0,-36.15,-61.5,92.0
1787131512.9937246,-3.077,1.41,8.899,1.84,0.124,0.483,-6.6,-29.25,-40.8,2184.0
1787131512.9937484,-3.321,1.618,9.297,1.649,0.03,0.37,-6.6,-27.75,-37.05,2184.0
1787131512.993761,-3.256,1.707,9.55,1.4,-0.05,0.26,-5.85,-27.45,-36.75,2184.0
1787131513.201554,-2.753,2.588,9.452,0.151,-0.008,0.054,-3.9,-24.45,-30.6,1002.0
1787131513.2015796,-2.871,2.643,9.239,0.051,0.003,0.069,-3.3,-23.55,-30.45,843.0
1787131513.2015908,-2.861,2.6,8.959,0.004,0.002,0.084,-4.35,-24.75,-31.5,843.0
1787131513.4097214,-2.954,2.385,8.808,-0.004,-0.04,0.026,-4.2,-25.65,-32.1,835.0
1787131513.4097462,-2.962,2.294,8.904,-0.023,-0.028,0.017,-5.55,-24.75,-30.9,835.0
1787131513.4097571,-3.127,2.471,9.024,-0.034,-0.013,-0.011,-4.8,-25.05,-30.45,835.0
1787131513.6150985,-2.904,1.999,9.962,-3.191,0.271,-0.665,-7.35,-30.15,-39.3,847.0
1787131513.8250756,-2.751,-3.814,6.917,0.334,0.049,0.115,-14.25,-33.45,-68.85,49.0
1787131513.8251019,-2.82,-4.322,7.336,0.577,0.089,0.269,-14.25,-35.25,-67.8,49.0
1787131513.8251133,-3.065,-4.439,7.717,0.894,0.015,0.318,-13.65,-34.8,-66.9,49.0
1787131514.0333812,-2.981,-0.749,8.71,2.279,-0.288,0.282,-8.7,-34.5,-50.55,2043.0
1787131514.033407,-2.634,-0.5,8.82,2.111,-0.102,0.413,-9.45,-34.2,-48.0,2043.0
1787131514.0334184,-2.65,-0.232,9.134,2.053,0.07,0.54,-7.5,-32.55,-46.8,2043.0
1787131514.2371664,-3.045,3.208,9.534,0.753,0.064,0.154,-3.9,-24.45,-29.85,2222.0
1787131514.250127,-3.227,3.151,9.725,0.477,0.139,0.09,-3.45,-23.7,-29.85,2222.0
1787131514.2501533,-2.983,2.966,9.79,0.261,0.131,0.058,-1.65,-25.2,-29.85,2222.0
1787131514.4490743,-2.859,2.725,8.59,-0.114,-0.037,0.034,-3.3,-24.75,-29.4,787.0
1787131514.449099,-2.751,2.705,8.602,-0.114,-0.016,0.015,-3.6,-25.5,-29.7,787.0
1787131514.4491105,-2.847,2.591,8.569,-0.109,0.01,0.001,-2.85,-24.75,-29.7,787.0
1787131514.65655,-2.878,2.61,9.012,-0.027,-0.03,-0.025,-3.9,-23.7,-31.05,812.0
1787131514.6565742,-2.916,2.727,8.988,-0.065,-0.034,-0.046,-3.6,-23.85,-30.15,812.0
1787131514.6565852,-2.794,2.722,9.086,-0.095,-0.01,-0.054,-4.2,-25.2,-29.85,812.0
1787131514.8639896,-2.952,2.028,9.689,-2.407,0.176,-0.604,-5.55,-29.25,-39.3,818.0
1787131514.8640153,-3.175,1.786,9.747,-2.874,0.239,-0.759,-6.75,-31.5,-42.45,818.0
1787131514.8640275,-3.038,1.729,9.644,-3.594,0.261,-0.9,-9.3,-33.9,-47.1,818.0
1787131515.0727866,-2.708,-3.285,7.293,-0.734,-0.364,-0.139,-12.15,-34.8,-64.65,109.0
1787131515.072812,-2.435,-2.986,7.216,-0.567,-0.251,-0.084,-12.45,-33.75,-65.25,109.0
1787131515.072823,-2.598,-3.179,7.362,-0.55,-0.129,-0.163,-13.95,-35.7,-66.0,109.0
1787131515.2777224,-2.914,-4.259,9.131,1.04,0.139,0.369,-12.0,-37.65,-63.75,81.0
1787131515.4883502,-2.859,2.89,9.627,1.369,-0.013,0.432,-4.2,-26.1,-31.05,2160.0
1787131515.4883745,-2.919,3.127,9.802,0.921,-0.073,0.346,-2.55,-23.55,-30.15,831.0
1787131515.4883854,-2.825,3.546,9.977,0.123,-0.111,0.131,-2.1,-24.3,-28.2,831.0
1787131515.695671,-2.713,2.734,8.6,-0.359,-0.021,0.012,-3.15,-23.25,-29.55,818.0
1787131515.6956956,-2.591,2.562,8.588,-0.272,-0.028,0.042,-2.55,-23.55,-30.15,845.0
1787131515.6957068,-2.61,2.559,8.406,-0.096,-0.025,0.054,-2.55,-23.85,-29.7,845.0
1787131515.904033,-2.883,2.691,9.225,-0.024,-0.119,0.082,-3.45,-24.45,-29.25,871.0
1787131515.9040606,-2.806,2.914,9.292,-0.15,-0.144,0.073,-1.35,-24.3,-31.5,853.0
1787131515.904072,-2.883,3.163,9.507,-0.413,-0.128,0.024,-3.45,-24.15,-31.05,853.0
1787131516.1112266,-3.553,-1.046,9.388,-3.542,0.679,-0.824,-8.1,-33.9,-50.4,1877.0
1787131516.1112518,-2.993,-1.41,9.34,-3.322,0.72,-0.777,-8.1,-35.1,-54.45,1841.0
1787131516.111263,-3.304,-2.449,9.098,-3.16,0.63,-0.735,-8.25,-36.15,-56.85,1841.0
1787131516.3198247,-2.246,-4.254,6.591,-0.587,0.018,0.143,-12.0,-33.75,-72.9,71.0
1787131516.3198504,-2.715,-4.846,6.524,-0.081,-0.032,0.129,-12.15,-33.6,-73.5,88.0
1787131516.3198721,-2.753,-5.193,6.893,0.576,-0.058,0.13,-12.45,-33.45,-72.9,88.0
1787131516.5269346,-3.345,-5.428,8.571,1.435,0.109,0.281,-12.15,-36.6,-69.9,68.0
1787131516.526971,-3.201,-5.329,8.526,1.854,0.113,0.217,-11.1,-35.85,-66.6,68.0
1787131516.526982,-3.117,-4.31,8.241,2.083,0.101,0.08,-11.55,-34.35,-64.65,68.0
1787131516.7355962,-2.322,2.04,8.533,2.682,-0.14,0.49,-7.05,-30.45,-39.0,2213.0
1787131516.7356215,-2.614,1.98,9.251,2.283,0.003,0.593,-4.2,-27.6,-35.4,2213.0
1787131516.7356334,-2.602,2.406,9.615,2.021,0.07,0.6,-6.45,-28.35,-34.65,2213.0
1787131516.942323,-3.074,3.278,9.354,-0.263,0.049,0.002,-3.3,-22.8,-28.2,791.0
1787131517.1479197,-2.971,2.464,9.725,-1.534,0.053,-0.433,-3.9,-27.15,-34.35,811.0
1787131517.147945,-3.146,2.298,10.032,-1.999,0.109,-0.532,-5.1,-27.45,-36.3,811.0
1787131517.147956,-3.163,1.906,10.077,-2.532,0.136,-0.68,-4.95,-30.6,-39.45,811.0
1787131517.3523538,-3.529,-3.134,8.679,-2.664,-0.084,-0.57,-11.55,-34.8,-63.15,155.0
1787131517.352378,-3.309,-3.924,8.301,-2.192,-0.148,-0.504,-13.35,-33.15,-65.1,155.0
1787131517.3523886,-3.472,-4.089,7.975,-1.769,-0.229,-0.036,-13.95,-34.5,-68.25,155.0
1787131517.5573916,-3.531,-5.988,7.963,1.017,0.118,0.434,-11.55,-33.9,-69.9,0.0
1787131517.5574162,-3.687,-5.602,7.966,1.72,0.106,0.749,-12.15,-34.35,-67.95,0.0
1787131517.5574267,-3.536,-5.076,8.068,2.341,-0.063,0.668,-10.35,-35.1,-66.15,0.0
1787131517.7616234,-2.784,0.536,9.531,1.77,0.04,0.254,-6.0,-31.5,-42.0,2199.0
1787131517.761647,-2.962,0.905,9.668,1.623,0.129,0.303,-6.3,-29.7,-41.85,2199.0
1787131517.7616584,-3.045,1.044,9.922,1.595,0.105,0.219,-5.85,-28.95,-40.35,2199.0
1787131517.9665105,-2.993,2.564,9.445,0.396,0.013,0.185,-4.8,-27.45,-32.7,836.0
1787131517.9665356,-3.156,2.428,9.062,0.264,-0.012,0.178,-4.35,-25.5,-30.9,836.0
1787131517.9665468,-3.103,2.404,9.072,0.158,-0.038,0.162,-3.45,-25.65,-31.35,836.0
1787131518.1712306,-3.055,2.241,8.703,-0.001,-0.007,-0.01,-3.9,-26.1,-31.35,812.0
1787131518.1712556,-2.998,2.282,8.77,0.018,0.005,-0.016,-4.65,-26.1,-31.8,827.0
1787131518.1712663,-3.017,2.279,8.89,0.013,0.008,-0.037,-3.45,-24.45,-31.8,827.0
1787131518.3765535,-3.156,2.672,9.172,-0.156,0.006,-0.102,-2.55,-23.85,-30.45,773.0
1787131518.3765774,-3.12,2.753,9.297,-0.326,-0.01,-0.096,-5.4,-26.85,-32.55,821.0
1787131518.3765883,-3.287,3.057,9.428,-0.594,-0.037,-0.151,-2.7,-25.2,-31.8,821.0
1787131518.5793355,-3.503,-3.249,9.335,-3.16,0.723,-0.746,-12.75,-34.95,-56.85,2147.0
1787131518.7856894,-2.164,-3.824,6.864,-0.196,-0.272,0.049,-13.35,-33.9,-68.7,80.0
1787131518.7857141,-2.358,-3.836,7.032,-0.129,-0.124,-0.011,-14.4,-34.35,-69.15,80.0
1787131518.7857256,-2.753,-4.223,7.398,0.006,-0.008,0.031,-13.2,-33.45,-68.85,80.0
1787131518.9903827,-2.938,-1.405,8.693,1.742,-0.04,0.428,-8.25,-35.7,-56.1,1987.0
1787131518.9904075,-3.134,-0.879,8.717,1.808,0.008,0.426,-8.55,-33.6,-54.45,1987.0
1787131518.9904187,-3.0,-0.421,8.837,1.793,-0.042,0.334,-8.55,-34.35,-50.7,1987.0
1787131519.1952796,-2.978,-0.06,9.009,1.562,-0.074,0.311,-7.05,-33.9,-48.9,2221.0
1787131519.1953046,-2.801,-0.127,9.246,1.488,0.013,0.427,-6.75,-31.5,-45.3,2221.0
1787131519.1953156,-3.045,0.148,9.352,1.487,0.014,0.456,-7.5,-30.3,-45.0,2221.0
1787131519.4009326,-3.026,2.564,9.124,0.045,0.036,-0.057,-3.3,-23.1,-30.15,782.0
1787131519.400958,-2.935,2.574,9.026,-0.02,0.021,-0.05,-3.15,-23.7,-31.05,782.0
1787131519.4009688,-2.923,2.538,8.978,-0.049,0.015,-0.03,-2.55,-23.85,-31.2,782.0
1787131519.6052408,-3.029,2.413,8.705,0.041,0.002,0.014,-3.9,-25.2,-31.8,745.0
1787131519.6052651,-3.029,2.473,8.803,0.06,-0.006,0.015,-2.7,-24.15,-32.1,745.0
1787131519.6052775,-3.117,2.646,8.935,0.059,-0.034,-0.006,-1.8,-24.3,-31.2,745.0
1787131519.809615,-3.369,2.732,10.113,-2.896,0.243,-0.888,-5.7,-28.35,-35.4,1484.0
1787131519.8096397,-3.218,2.09,10.075,-3.521,0.259,-1.047,-7.2,-29.1,-39.15,1484.0
1787131519.809651,-3.357,0.737,9.871,-3.738,0.433,-1.083,-8.85,-32.85,-45.9,1484.0
1787131520.0149322,-2.863,-4.161,6.776,-1.233,-0.161,-0.19,-14.25,-35.25,-67.05,61.0
1787131520.0149577,-2.89,-4.223,6.357,-0.768,-0.227,0.22,-13.2,-33.75,-68.85,61.0
1787131520.0149686,-1.985,-2.653,6.682,-0.357,-0.15,0.164,-14.4,-33.9,-69.45,61.0
1787131520.21765,-3.491,-4.561,8.88,1.185,-0.043,0.359,-11.85,-34.8,-64.65,91.0
1787131520.423914,-3.417,2.586,8.983,2.039,-0.023,0.399,-6.0,-26.4,-34.65,2208.0
1787131520.423939,-3.405,2.873,9.392,1.655,-0.121,0.344,-5.1,-27.45,-33.0,2208.0
1787131520.4239502,-2.863,3.266,9.637,1.224,-0.054,0.332,-4.2,-26.1,-33.3,827.0
1787131520.629268,-3.084,2.823,8.586,-0.259,0.036,-0.035,-1.8,-23.1,-28.2,742.0
1787131520.6292946,-3.06,2.729,8.416,-0.243,0.01,-0.002,-3.6,-24.75,-29.7,742.0
1787131520.6293056,-2.993,2.717,8.246,-0.195,-0.001,0.0,-2.85,-22.35,-30.15,742.0
1787131520.8366117,-3.175,2.813,9.026,-0.098,0.025,-0.094,-4.65,-24.45,-30.3,761.0
1787131520.8366368,-3.213,2.849,9.115,-0.141,0.023,-0.121,-3.15,-22.95,-30.3,742.0
1787131520.8366477,-3.132,2.794,9.127,-0.247,0.02,-0.153,-4.05,-23.85,-29.4,742.0
1787131521.0388646,-2.966,1.884,9.517,-2.246,-0.105,-0.426,-4.8,-28.95,-38.25,796.0
1787131521.0388901,-3.038,1.484,9.555,-2.686,-0.013,-0.559,-7.05,-30.45,-40.35,2167.0
1787131521.0389016,-3.069,0.948,9.366,-3.022,0.119,-0.698,-8.55,-32.85,-44.85,2167.0
1787131521.2444317,-2.854,-4.087,7.879,-2.124,-0.094,0.052,-13.65,-33.9,-67.65,2167.0
1787131521.2444553,-2.251,-2.892,7.566,-1.911,-0.176,0.022,-14.85,-34.35,-67.2,2167.0
1787131521.2444658,-2.061,-4.824,7.649,-1.565,0.061,0.135,-14.25,-34.5,-70.05,2167.0
1787131521.4488149,-2.863,-4.331,7.128,0.999,-0.104,-0.125,-12.75,-33.0,-71.1,67.0
1787131521.44884,-2.626,-4.606,7.561,1.205,0.08,-0.013,-13.5,-35.25,-71.1,67.0
1787131521.4488509,-3.472,-5.825,8.018,1.596,0.228,0.458,-13.95,-34.5,-68.55,67.0
1787131521.6529016,-3.148,0.263,8.657,2.697,0.029,0.504,-7.35,-31.95,-47.1,2177.0
1787131521.6529264,-3.148,0.814,8.892,2.509,-0.028,0.436,-6.0,-29.85,-42.45,2177.0
1787131521.6529377,-3.249,1.398,9.031,2.223,-0.063,0.482,-6.6,-29.7,-40.05,2177.0
1787131521.8553674,-3.062,2.713,9.476,0.028,0.003,0.043,-4.8,-27.0,-31.2,803.0
1787131522.062228,-3.041,2.251,8.988,0.012,0.04,-0.035,-4.65,-24.9,-31.05,848.0
1787131522.0622525,-3.072,2.203,9.108,-0.018,0.019,-0.044,-5.1,-25.8,-31.5,848.0
1787131522.062264,-3.079,2.308,9.155,-0.028,-0.014,-0.04,-4.95,-24.9,-31.35,848.0
1787131522.2671144,-2.95,1.53,9.687,-2.581,0.322,-0.523,-6.3,-30.45,-41.85,2172.0
1787131522.2671888,-3.251,0.943,9.725,-2.864,0.408,-0.639,-7.05,-30.15,-43.05,2172.0
1787131522.2672246,-3.596,-1.039,9.843,-3.077,0.458,-0.693,-8.7,-32.25,-49.8,2172.0
1787131522.4718316,-3.321,-4.12,7.278,-0.863,-0.332,-0.18,-13.5,-34.5,-65.25,29.0
1787131522.4718685,-2.914,-4.295,7.125,-0.452,-0.264,-0.002,-12.15,-33.9,-67.65,29.0
1787131522.4718797,-2.828,-4.554,7.29,-0.087,-0.139,0.11,-13.65,-35.85,-67.95,29.0
1787131522.6765864,-3.56,-4.355,8.274,2.881,-0.257,0.367,-12.0,-34.95,-63.0,16.0
1787131522.6766121,-3.85,-2.957,7.781,3.514,-0.444,0.253,-11.7,-35.7,-58.95,16.0
1787131522.6766229,-3.316,-1.705,7.369,3.893,-0.454,0.395,-10.35,-34.35,-57.3,16.0
1787131522.8818474,-3.725,2.49,9.914,1.015,-0.113,0.299,-4.35,-28.2,-34.2,906.0
1787131522.8818862,-3.11,2.667,9.946,0.689,-0.12,0.242,-5.55,-26.25,-31.95,906.0
1787131522.8818974,-3.306,2.646,9.96,0.443,-0.072,0.206,-3.45,-25.65,-31.8,906.0
1787131523.0868013,-2.909,2.251,8.856,-0.177,0.025,-0.018,-3.45,-24.15,-31.8,815.0
1787131523.0868266,-3.012,2.308,8.729,-0.173,0.007,-0.014,-4.35,-25.5,-30.9,815.0
1787131523.0868375,-3.043,2.243,8.612,-0.153,-0.001,-0.006,-4.65,-25.2,-32.1,892.0
1787131523.2908146,-3.005,2.16,9.153,0.012,-0.013,0.023,-5.4,-25.2,-32.1,841.0
1787131523.2908382,-3.014,2.174,9.124,-0.013,-0.001,0.009,-5.4,-25.2,-32.85,825.0
1787131523.2908494,-3.098,2.277,9.213,-0.073,-0.014,-0.007,-3.45,-24.9,-32.1,825.0
1787131523.4954174,-2.907,0.769,9.869,-3.8,0.253,-0.748,-7.8,-31.95,-43.05,1174.0
1787131523.495443,-2.689,-0.101,9.984,-3.875,0.582,-0.694,-7.95,-33.75,-50.55,1174.0
1787131523.7006288,-3.199,-4.633,7.494,0.072,0.079,-0.036,-12.45,-32.55,-71.85,22.0
1787131523.700653,-3.184,-5.04,7.673,0.417,0.073,0.062,-13.95,-33.45,-72.3,22.0
1787131523.7006645,-2.665,-5.234,8.095,0.624,-0.038,0.063,-14.1,-33.9,-70.95,22.0
1787131523.905476,-3.742,-2.363,8.198,2.194,-0.097,0.113,-12.45,-34.95,-58.95,30.0
1787131523.9055004,-3.455,-1.824,8.016,2.206,-0.176,0.218,-12.0,-34.95,-56.4,30.0
1787131523.9055111,-3.266,-1.695,8.377,2.22,-0.214,0.403,-10.2,-35.25,-56.1,30.0
1787131524.1100926,-3.378,2.358,9.512,1.591,-0.141,0.521,-4.2,-27.9,-35.1,1448.0
1787131524.1101182,-2.928,2.586,9.637,1.237,-0.121,0.389,-4.95,-26.4,-32.1,1448.0
1787131524.110129,-3.017,3.112,9.761,0.876,-0.077,0.286,-5.1,-25.05,-29.4,1448.0
1787131524.3148453,-3.144,2.55,8.835,-0.233,-0.03,-0.004,-3.15,-23.7,-30.6,809.0
1787131524.314876,-3.036,2.533,8.586,-0.222,-0.018,-0.009,-3.3,-25.5,-30.45,809.0
1787131524.3148909,-3.05,2.325,8.416,-0.178,0.0,-0.005,-4.35,-25.5,-30.45,809.0
1787131524.5201626,-3.079,2.231,8.497,0.006,0.029,-0.023,-3.45,-24.15,-31.05,786.0
1787131524.5201874,-3.163,2.461,8.638,0.031,0.006,-0.032,-5.55,-25.5,-31.2,786.0
1787131524.5201986,-3.153,2.425,8.76,-0.007,-0.019,-0.067,-4.05,-25.8,-31.5,786.0
1787131524.724972,-2.863,-1.279,9.969,-3.763,0.364,-1.008,-11.85,-34.35,-54.45,1424.0
1787131524.7251604,-3.021,-2.787,9.316,-3.508,0.546,-0.898,-12.45,-35.7,-58.65,1424.0
1787131524.725169,-3.206,-3.383,8.873,-3.12,0.645,-0.699,-14.4,-33.9,-61.35,1424.0
1787131524.9289634,-2.655,-5.112,6.517,0.553,-0.146,0.069,-15.9,-32.4,-70.65,86.0
1787131524.9289877,-3.194,-5.203,6.68,0.702,-0.107,0.149,-15.6,-32.85,-71.25,86.0
1787131524.9289992,-3.323,-5.825,7.104,0.962,-0.034,0.319,-13.95,-33.75,-72.6,86.0
1787131525.1337304,-2.907,-1.891,8.645,2.701,0.04,0.664,-10.95,-33.0,-50.55,2214.0
1787131525.1337554,-3.345,0.189,8.945,2.33,-0.21,0.573,-8.55,-30.15,-45.9,2214.0
1787131525.336923,-2.959,4.173,9.117,0.534,-0.033,0.359,-1.95,-21.75,-27.75,708.0
1787131525.3409443,-3.048,4.154,9.21,0.343,0.011,0.253,-1.05,-22.8,-25.65,708.0
1787131525.3409739,-3.072,3.996,9.213,0.176,0.013,0.157,-1.2,-21.45,-24.45,725.0
1787131525.5435634,-2.938,3.333,8.322,-0.245,0.012,-0.135,-1.8,-22.8,-26.85,715.0
1787131525.543587,-2.818,3.335,8.322,-0.251,0.042,-0.151,-1.35,-22.35,-26.1,715.0
1787131525.5435982,-2.871,3.314,8.334,-0.241,0.056,-0.179,-1.65,-22.2,-27.0,732.0
1787131525.749166,-3.153,3.378,9.179,-0.738,-0.006,-0.241,-1.95,-23.7,-28.05,728.0
1787131525.7492013,-3.211,3.285,9.184,-1.032,-0.049,-0.272,-2.4,-22.5,-29.85,728.0
1787131525.7492077,-3.112,3.309,9.436,-1.399,-0.088,-0.324,-4.05,-24.3,-31.5,780.0
1787131525.9604666,-3.065,-0.79,8.317,-1.778,0.012,-0.339,-8.55,-34.35,-52.5,2199.0
1787131525.9604912,-3.041,-1.31,8.329,-1.807,0.047,-0.239,-10.05,-33.6,-54.0,2199.0
1787131525.9605024,-2.682,-1.798,8.262,-1.684,0.09,-0.261,-9.3,-35.55,-56.25,2032.0
1787131526.1586633,-2.923,-2.531,8.466,0.724,-0.156,0.104,-9.6,-34.35,-60.3,2032.0
1787131526.1586885,-3.067,-2.456,8.734,0.869,-0.111,0.092,-10.05,-34.8,-59.1,2032.0
1787131526.1586998,-3.105,-2.49,8.914,1.259,-0.034,0.1,-9.45,-34.5,-58.95,2122.0
1787131526.3635888,-2.859,1.13,8.902,1.771,-0.07,0.284,-7.05,-28.95,-41.85,2187.0
1787131526.3636146,-2.674,1.736,9.148,1.362,0.072,0.327,-5.7,-29.85,-39.15,2187.0
1787131526.3636255,-2.739,1.434,9.577,1.126,0.112,0.295,-5.55,-28.5,-39.3,2187.0
1787131526.568138,-2.866,2.389,8.928,0.274,0.023,0.109,-2.7,-23.7,-30.3,787.0
1787131526.568162,-2.732,2.547,8.902,0.228,0.051,0.089,-2.4,-22.5,-30.3,787.0
1787131526.5681725,-2.729,2.576,8.768,0.156,0.061,0.068,-2.1,-23.1,-30.9,787.0
1787131526.7737823,-2.947,2.854,8.921,0.134,0.028,0.067,-3.3,-23.85,-28.95,761.0
1787131526.7738082,-3.021,3.072,8.993,0.106,-0.004,0.104,-2.4,-23.25,-28.8,761.0
1787131526.7738194,-3.081,3.175,8.916,0.029,-0.087,0.089,-2.4,-24.15,-28.5,761.0
1787131526.9771545,-2.239,1.82,9.955,-3.868,0.414,-1.132,-6.75,-30.3,-42.45,2162.0
1787131526.9771824,-2.643,0.467,10.288,-3.835,0.83,-1.09,-7.8,-32.4,-43.05,2162.0
1787131526.9771934,-2.72,-1.666,10.393,-3.492,1.004,-1.017,-10.5,-34.95,-50.1,2162.0
1787131527.1824074,-2.672,-3.625,7.266,-0.753,-0.007,-0.094,-14.85,-33.9,-67.2,54.0
1787131527.1824324,-1.887,-2.981,7.628,-0.355,0.142,0.082,-14.7,-33.75,-68.85,54.0
1787131527.1824436,-3.033,-4.513,7.695,0.059,0.053,0.086,-13.2,-33.0,-67.8,54.0
1787131527.388617,-3.263,-4.226,8.875,1.298,0.091,0.279,-12.15,-35.1,-63.6,86.0
1787131527.388642,-3.151,-3.603,8.6,1.591,0.024,0.252,-12.45,-36.15,-61.5,86.0
1787131527.388653,-3.28,-3.201,8.504,1.847,-0.078,0.25,-11.7,-35.7,-58.2,86.0
1787131527.5918822,-3.108,0.359,8.744,2.396,-0.112,0.545,-5.4,-29.85,-39.9,2216.0
1787131527.5919085,-3.239,1.298,8.502,2.281,-0.147,0.498,-5.7,-27.9,-36.9,1984.0
1787131527.5919194,-3.021,1.839,8.679,2.09,-0.092,0.486,-5.4,-27.6,-35.4,1984.0
1787131527.7967298,-3.043,3.816,9.546,0.128,-0.005,0.018,-2.85,-22.35,-26.4,724.0
1787131527.7967546,-2.964,3.766,9.527,-0.107,0.008,-0.041,-2.7,-21.75,-25.2,724.0
1787131527.7967658,-2.976,3.632,9.38,-0.233,0.052,-0.058,-2.55,-21.15,-25.35,737.0
1787131528.0015042,-3.273,2.43,9.007,-1.655,0.11,-0.478,-3.45,-23.7,-31.05,743.0
1787131528.0015295,-3.278,2.025,9.206,-1.818,0.104,-0.452,-4.8,-25.8,-33.0,743.0
1787131528.0015402,-3.395,1.504,9.414,-1.815,0.036,-0.485,-5.55,-28.95,-36.0,743.0
1787131528.207261,-2.564,-1.207,9.656,-2.461,0.367,-0.546,-11.55,-34.8,-53.7,2242.0
1787131528.2072856,-3.357,-2.361,9.014,-2.297,0.509,-0.506,-12.45,-34.5,-54.6,2242.0
1787131528.2072968,-3.486,-2.26,8.665,-2.214,0.451,-0.431,-11.25,-34.95,-57.15,2242.0
1787131528.4100475,-2.71,-3.761,7.178,0.683,-0.185,0.198,-12.15,-33.6,-66.9,42.0
1787131528.4100711,-3.041,-3.73,8.052,1.141,-0.032,0.463,-10.8,-35.85,-65.4,125.0
1787131528.6159303,-3.302,0.541,9.926,0.633,0.148,0.055,-8.1,-33.6,-45.9,2194.0
1787131528.615956,-3.591,0.493,10.257,0.399,0.098,-0.012,-8.55,-33.15,-44.85,2194.0
1787131528.6159673,-3.563,0.184,10.453,0.314,0.085,0.0,-8.85,-32.4,-45.15,2194.0
1787131528.8201923,-3.021,0.431,8.916,-0.144,0.004,0.071,-7.95,-32.55,-43.95,2219.0
1787131528.8202157,-3.273,0.287,8.899,-0.088,-0.053,0.088,-8.55,-33.6,-44.85,2219.0
1787131528.8202274,-3.187,0.366,8.806,0.02,-0.174,0.069,-8.55,-31.65,-44.1,2219.0
1787131529.0251007,-2.813,0.208,9.347,0.348,-0.098,0.142,-6.3,-31.65,-44.4,2175.0
1787131529.025126,-2.765,0.29,9.493,0.316,-0.045,0.15,-6.45,-32.25,-42.45,2175.0
1787131529.0251367,-2.935,0.251,9.701,0.326,0.014,0.166,-6.75,-31.8,-41.7,2175.0
1787131529.230325,-2.866,0.977,9.292,0.034,0.056,0.029,-5.85,-30.15,-39.6,2077.0
1787131529.2303498,-2.83,1.018,9.158,0.127,0.043,0.031,-6.6,-29.7,-39.3,2077.0
1787131529.2304082,-2.868,1.034,9.141,0.177,0.007,0.052,-6.3,-30.15,-40.35,2077.0
1787131529.4349267,-2.966,2.009,9.661,-1.325,0.118,-0.55,-6.3,-30.9,-40.8,2149.0
1787131529.4349518,-2.629,1.896,9.874,-2.1,0.372,-0.758,-7.35,-30.45,-41.85,2149.0
1787131529.434963,-3.163,0.294,9.905,-2.706,0.608,-0.864,-6.6,-32.4,-45.9,2149.0
1787131529.6395621,-2.837,-4.513,6.369,-1.425,-0.29,-0.059,-14.4,-33.9,-67.65,0.0
1787131529.639587,-2.377,-4.379,6.644,-1.065,-0.295,0.098,-14.7,-33.45,-70.05,0.0
1787131529.6395977,-2.351,-4.609,7.063,-0.618,-0.305,0.259,-15.6,-34.35,-69.45,0.0
1787131529.8447335,-4.329,-5.03,8.48,0.767,-0.082,0.171,-12.9,-35.1,-67.65,0.0
1787131529.8447583,-3.783,-4.554,8.447,0.831,-0.066,0.18,-13.35,-34.8,-65.85,0.0
1787131529.8447692,-3.579,-4.537,8.562,0.865,-0.007,0.185,-13.65,-34.8,-65.85,0.0
1787131530.046931,-3.496,-2.423,9.021,0.261,-0.027,-0.005,-11.7,-35.7,-62.25,97.0
1787131530.253689,-3.055,-2.849,8.902,0.168,-0.018,0.022,-11.7,-35.25,-60.45,145.0
1787131530.2537124,-3.134,-2.851,8.885,0.184,-0.09,0.06,-11.55,-35.55,-61.8,145.0
1787131530.253724,-3.05,-2.998,9.086,0.203,-0.107,0.086,-10.8,-36.3,-62.55,145.0
1787131530.4594204,-3.261,-4.142,8.274,1.245,0.015,0.436,-11.55,-36.6,-64.35,60.0
1787131530.459446,-2.938,-3.907,8.169,1.828,-0.02,0.531,-10.8,-36.6,-61.35,60.0
1787131530.4594567,-3.529,-3.51,8.009,3.044,-0.122,0.466,-10.95,-34.95,-58.65,60.0
1787131530.6634624,-3.723,1.458,9.364,1.14,0.046,0.22,-4.2,-28.35,-35.85,1993.0
1787131530.6634867,-3.56,1.31,9.828,1.016,-0.003,0.176,-4.65,-27.6,-34.35,1993.0
1787131530.663498,-3.692,1.812,9.984,0.846,-0.076,0.08,-4.95,-27.6,-31.8,1993.0
1787131530.8684785,-2.986,2.478,8.918,-0.181,0.031,-0.053,-5.1,-24.75,-31.2,771.0
1787131530.8685036,-3.275,2.758,8.882,-0.378,-0.022,-0.059,-4.95,-25.2,-31.05,771.0
1787131530.8685145,-3.215,2.674,9.019,-0.607,-0.069,-0.085,-6.0,-25.65,-31.8,771.0
1787131531.074145,-3.452,-0.529,10.238,-3.239,0.479,-0.705,-10.05,-33.6,-46.65,2234.0
1787131531.0741696,-3.297,-0.931,9.699,-3.151,0.623,-0.747,-9.6,-34.35,-47.4,2234.0
1787131531.0741804,-3.651,-2.045,9.677,-3.079,0.597,-0.681,-11.85,-35.1,-53.25,2234.0
1787131531.2800288,-3.694,-2.389,8.969,-3.021,0.478,-0.613,-10.95,-33.75,-55.65,2234.0
1787131531.280053,-3.634,-3.63,8.808,-2.643,0.327,-0.412,-12.45,-35.25,-58.2,2234.0
1787131531.2800663,-3.833,-4.094,8.401,-2.125,0.115,-0.361,-12.9,-35.55,-61.8,53.0
1787131531.4823394,-3.632,-4.235,8.55,2.594,0.074,0.371,-12.6,-36.3,-60.3,0.0
1787131531.4823635,-3.816,-3.033,8.15,2.934,-0.137,0.269,-10.5,-35.25,-57.15,0.0
1787131531.4823747,-4.027,-1.429,7.93,2.837,-0.366,0.201,-10.5,-35.25,-56.1,0.0
1787131531.6869726,-2.799,1.53,10.106,0.746,0.027,0.113,-6.3,-25.8,-35.55,1905.0
1787131531.6869988,-3.153,1.705,9.792,0.537,0.047,0.094,-6.45,-27.9,-34.65,1905.0
1787131531.8920677,-3.191,1.544,8.82,0.036,0.024,0.054,-5.7,-26.4,-32.85,944.0
1787131531.8920941,-3.304,1.59,8.784,0.183,-0.005,0.068,-6.3,-25.8,-31.95,922.0
1787131531.8921056,-3.335,1.774,8.691,0.223,-0.021,0.056,-5.7,-25.65,-31.8,922.0
1787131532.098239,-2.756,2.418,9.89,-3.008,0.103,-0.736,-8.25,-29.55,-38.7,922.0
1787131532.0982637,-2.746,1.422,10.613,-3.416,0.369,-0.881,-11.85,-34.35,-45.15,2207.0
1787131532.0982752,-3.165,0.95,10.321,-3.879,0.528,-1.035,-10.05,-34.35,-47.1,2207.0
1787131532.3016183,-1.834,-3.067,6.227,0.666,-0.5,0.28,-14.1,-35.55,-65.85,51.0
1787131532.3016424,-2.796,-2.638,6.467,0.824,-0.264,0.093,-13.65,-36.6,-64.65,73.0
1787131532.301654,-3.273,-2.658,6.869,0.911,-0.087,0.135,-13.95,-34.95,-62.25,73.0
1787131532.5067978,-2.701,-0.747,8.815,2.78,-0.228,0.557,-9.45,-32.55,-46.8,2054.0
1787131532.5068228,-2.806,0.484,8.957,2.44,-0.131,0.64,-9.6,-29.7,-43.05,2054.0
1787131532.5068345,-3.309,1.448,9.364,2.202,-0.092,0.656,-6.75,-29.85,-40.95,2150.0
1787131532.7123435,-2.947,2.533,9.579,0.054,0.048,-0.045,-6.3,-26.25,-32.25,2150.0
1787131532.7123687,-2.902,2.461,9.412,-0.053,0.056,-0.072,-6.6,-25.5,-30.9,2150.0
1787131532.7123795,-2.662,2.274,9.409,-0.094,0.07,-0.078,-5.4,-25.65,-31.8,2150.0
1787131532.9159706,-2.856,1.994,8.847,-0.047,0.012,0.002,-5.85,-24.75,-29.7,1108.0
1787131532.9159942,-2.82,2.097,8.847,-0.05,-0.019,0.011,-5.7,-26.4,-32.85,1108.0
1787131532.916005,-2.82,2.042,8.916,-0.041,-0.013,0.011,-6.45,-26.4,-33.6,1056.0
1787131533.121256,-2.919,2.444,9.342,-0.16,-0.038,-0.006,-5.1,-24.75,-33.75,1072.0
1787131533.1212807,-3.115,2.61,9.582,-0.458,-0.055,-0.027,-6.45,-24.75,-33.75,1072.0
1787131533.1212926,-3.139,3.124,9.697,-1.026,-0.127,-0.148,-5.4,-25.65,-33.9,1860.0
1787131533.323452,-4.039,-4.69,8.758,-3.613,1.017,-0.752,-14.1,-35.55,-62.1,1934.0
1787131533.5307403,-3.309,-4.015,8.282,1.885,0.163,0.131,-15.45,-34.5,-64.5,74.0
1787131533.5307646,-3.582,-3.761,8.576,1.964,0.132,0.187,-14.85,-35.1,-62.85,74.0
1787131533.5307758,-3.701,-3.299,8.861,1.998,0.002,0.141,-14.25,-34.2,-60.15,74.0
1787131533.7354157,-2.904,0.18,9.675,1.492,-0.157,0.446,-10.05,-30.45,-40.8,2171.0
1787131533.7354398,-2.859,0.855,9.5,1.54,-0.109,0.394,-10.05,-28.95,-42.3,2171.0
1787131533.7354512,-2.71,1.118,9.076,1.59,-0.046,0.435,-8.25,-29.85,-37.2,2171.0
1787131533.9397728,-2.988,2.277,9.483,0.118,0.087,0.026,-5.7,-24.15,-31.35,1282.0
1787131533.9397984,-2.966,2.239,9.409,0.069,0.086,0.026,-5.1,-25.5,-31.5,1282.0
1787131533.9398093,-3.091,2.224,9.278,0.014,0.058,0.009,-4.8,-26.55,-31.2,1282.0
1787131534.1452544,-3.019,2.138,8.813,-0.074,-0.022,-0.007,-5.85,-24.75,-31.5,957.0
1787131534.1452806,-3.002,2.105,8.789,-0.105,-0.028,-0.021,-7.35,-26.25,-31.95,957.0
1787131534.1452916,-2.964,2.124,8.926,-0.149,-0.011,-0.037,-7.35,-26.55,-31.5,957.0
1787131534.350333,-3.287,0.038,10.288,-3.971,0.69,-1.1,-10.95,-34.2,-44.7,2129.0
1787131534.350358,-3.328,-1.07,9.881,-4.141,0.832,-1.07,-11.55,-33.9,-51.45,2129.0
1787131534.350369,-3.496,-3.407,9.653,-3.813,0.838,-0.822,-12.15,-33.6,-54.0,2129.0
1787131534.554757,-3.055,-4.154,6.867,-1.476,-0.626,0.283,-16.95,-33.0,-69.6,17.0
1787131534.554782,-1.992,-4.937,6.704,-0.888,-0.248,0.205,-17.1,-33.15,-72.0,17.0
1787131534.554793,-2.581,-5.459,6.749,-0.07,-0.014,0.181,-15.9,-31.65,-71.7,61.0
1787131534.7592545,-3.615,-4.446,8.231,2.392,0.135,0.277,-12.15,-35.1,-65.4,1.0
1787131534.759279,-4.037,-3.761,8.188,2.545,-0.027,0.178,-12.6,-35.55,-61.8,1.0
1787131534.7592895,-4.331,-3.055,8.423,2.578,-0.26,0.144,-12.0,-36.15,-58.65,1.0
1787131534.9623446,-2.842,1.049,9.871,1.331,0.095,0.297,-8.25,-29.55,-37.2,2202.0
1787131535.1691663,-3.038,2.684,8.684,0.086,0.005,0.065,-4.95,-23.7,-30.6,952.0
1787131535.169191,-3.05,2.361,8.83,0.109,0.006,0.066,-3.9,-24.9,-31.05,952.0
1787131535.1692019,-2.863,2.437,8.851,0.138,-0.004,0.064,-4.05,-24.75,-30.9,952.0
1787131535.3734124,-2.907,2.775,9.007,0.23,0.012,0.042,-3.6,-24.75,-28.95,779.0
1787131535.373437,-2.899,3.11,8.866,0.063,0.01,-0.034,-3.15,-24.15,-28.5,779.0
1787131535.3734477,-3.012,3.213,8.933,-0.161,0.001,-0.087,-3.45,-24.45,-28.5,779.0
1787131535.5786262,-3.108,2.811,9.495,-1.09,0.016,-0.273,-4.95,-27.15,-32.1,820.0
1787131535.578652,-2.94,2.107,9.653,-2.202,0.008,-0.435,-4.05,-27.0,-35.25,820.0
1787131535.7834215,-3.847,-4.678,8.056,-1.879,0.508,-0.304,-14.25,-35.7,-63.75,138.0
1787131535.7834468,-4.259,-3.584,7.369,-1.794,-0.155,-0.5,-13.95,-34.95,-65.55,138.0
1787131535.7834578,1.25,-1.123,8.861,-1.887,-0.52,-0.129,-13.5,-34.5,-67.8,138.0
1787131535.9886527,-3.428,-5.928,8.042,1.398,-0.046,0.369,-13.5,-34.95,-67.5,0.0
1787131535.9886782,-3.098,-4.781,8.018,1.809,0.045,0.349,-14.1,-34.35,-66.9,0.0
1787131535.9886892,-3.203,-4.317,8.14,2.142,0.076,0.264,-12.0,-36.15,-66.0,0.0
1787131536.1928098,-2.907,0.101,8.301,2.987,-0.136,0.703,-8.1,-31.95,-47.25,0.0
1787131536.1928341,-3.311,0.905,8.42,2.819,-0.141,0.617,-7.2,-32.55,-41.7,2237.0
1787131536.1928453,-2.875,1.954,8.557,2.311,-0.169,0.509,-7.35,-30.15,-39.3,2237.0
1787131536.3974047,-3.462,2.598,9.61,-0.342,-0.003,-0.06,-5.4,-25.65,-30.3,752.0
1787131536.39743,-3.179,2.306,9.471,-0.479,-0.051,-0.044,-5.1,-26.25,-31.2,752.0
1787131536.3974404,-3.069,2.215,9.246,-0.563,-0.026,-0.021,-6.0,-25.65,-32.85,752.0
1787131536.6015964,-3.158,0.567,9.031,-0.995,0.115,-0.154,-6.6,-30.9,-41.55,2124.0
1787131536.8077466,-3.05,-1.046,9.002,0.04,-0.009,0.097,-9.6,-35.1,-50.4,2109.0
1787131536.8078222,-3.139,-0.836,8.911,0.07,-0.036,0.065,-9.3,-35.55,-51.45,2109.0
1787131536.807886,-3.029,-0.8,8.959,0.063,-0.073,0.051,-8.1,-33.15,-50.4,2193.0
1787131537.0115974,-3.223,-0.438,9.364,-0.046,-0.036,-0.039,-8.25,-34.5,-50.1,2155.0
1787131537.0116227,-3.146,-0.46,9.352,-0.095,-0.046,-0.061,-8.1,-35.1,-48.9,2155.0
1787131537.0116346,-2.919,-0.467,9.333,-0.144,-0.019,-0.055,-8.55,-33.9,-50.4,2146.0
1787131537.2171044,-2.691,-1.951,8.653,2.207,0.221,0.324,-7.5,-33.75,-47.25,2166.0
1787131537.2171292,-2.734,-1.276,8.021,3.626,0.315,0.643,-5.85,-31.65,-43.65,2166.0
1787131537.2171404,-2.641,1.171,6.431,4.656,0.435,1.168,-6.45,-28.35,-40.2,2166.0
1787131537.4212544,-2.959,8.389,7.623,1.967,-0.158,0.723,4.2,-5.85,-15.6,926.0
1787131537.4212794,-3.12,8.875,8.083,1.109,-0.173,0.467,2.4,-5.1,-15.6,926.0
1787131537.4212904,-2.593,9.311,8.219,0.294,-0.164,-0.023,2.85,-2.7,-14.7,926.0
1787131537.6260586,-3.438,5.119,7.537,-3.191,-0.253,-0.973,0.45,-15.6,-19.65,967.0
1787131537.6260831,-3.038,4.752,7.305,-3.253,-0.396,-1.004,-0.3,-18.45,-24.6,967.0
1787131537.6260939,-3.117,3.673,7.542,-3.106,-0.355,-0.968,-1.05,-18.9,-26.85,967.0
1787131537.8309858,-2.919,0.139,8.195,-0.664,-0.003,-0.436,-7.2,-32.25,-45.0,704.0
1787131537.8310084,-2.971,0.381,8.092,-0.59,-0.128,-0.386,-7.5,-33.45,-44.7,704.0
1787131537.8310194,-2.749,0.175,8.234,-0.551,-0.176,-0.228,-10.5,-32.25,-44.7,704.0
1787131538.036185,-2.921,0.148,9.503,0.069,0.035,0.019,-11.1,-31.95,-44.85,2207.0
1787131538.0362182,-3.144,0.268,9.541,0.065,0.018,-0.005,-10.95,-32.25,-46.8,2207.0
1787131538.0362246,-2.94,0.177,9.459,0.057,0.036,-0.014,-8.55,-32.85,-43.65,2207.0
1787131538.23831,-3.067,0.436,9.096,0.14,-0.005,0.019,-10.35,-31.65,-44.85,2145.0
1787131538.4451568,-3.673,5.48,7.985,1.677,0.491,0.216,-1.95,-14.85,-21.45,733.0
1787131538.4451814,-4.164,5.914,8.212,1.072,0.301,0.029,0.45,-13.65,-19.95,818.0
1787131538.4451928,-4.226,6.069,8.468,0.635,0.111,-0.06,-0.3,-13.8,-19.05,818.0
1787131538.6501608,-3.596,5.478,8.097,-2.291,-0.13,-0.597,-1.65,-15.9,-21.45,1007.0
1787131538.6502032,-3.646,4.889,8.083,-2.647,-0.208,-0.723,-3.45,-18.75,-23.25,687.0
1787131538.6502101,-3.733,4.501,8.092,-2.905,-0.312,-0.8,-1.8,-18.9,-24.6,687.0
1787131538.8549032,-3.199,-0.888,8.535,-1.165,-0.046,-0.363,-9.75,-32.25,-46.8,968.0
1787131538.8549323,-3.354,-0.512,8.459,-0.828,0.017,-0.313,-11.1,-33.15,-47.1,2236.0
1787131538.854944,-3.043,-0.261,8.423,-0.736,-0.049,-0.334,-10.2,-33.45,-49.05,2236.0
1787131539.0602546,-3.402,-0.773,9.311,-0.169,-0.142,-0.049,-10.95,-34.2,-49.8,2236.0
1787131539.060279,-3.194,-1.061,9.443,-0.067,-0.017,0.009,-12.45,-33.75,-49.8,2201.0
1787131539.0602896,-3.28,-1.082,9.416,0.013,0.04,0.006,-12.75,-33.75,-50.1,2201.0
1787131539.2652068,-3.328,-0.637,9.048,0.031,-0.02,-0.019,-11.85,-33.9,-50.4,2208.0
1787131539.2652283,-3.148,-0.745,9.1,-0.065,-0.002,-0.034,-12.45,-34.95,-50.1,2220.0
1787131539.2652392,-3.172,-0.754,9.191,-0.094,0.03,-0.038,-12.75,-32.55,-50.1,2220.0
1787131539.4692202,-3.057,-1.276,9.117,0.403,0.112,0.096,-12.0,-33.75,-51.6,2220.0
1787131539.4692452,-2.907,-1.36,9.043,0.736,0.148,0.087,-11.7,-34.95,-49.8,2220.0
1787131539.469256,-2.854,-1.573,8.772,1.257,0.244,0.153,-12.0,-33.0,-48.3,2220.0
1787131539.6739604,-4.36,6.802,8.887,0.845,0.068,0.041,0.3,-11.1,-18.3,729.0
1787131539.6739886,-3.886,7.056,9.337,-0.09,-0.02,-0.158,-1.05,-11.1,-16.5,729.0
1787131539.6739995,-3.752,6.594,9.292,-0.625,-0.07,-0.238,-1.05,-10.35,-17.25,960.0
1787131539.8788476,-3.175,3.282,7.827,-2.95,-0.548,-0.229,-4.95,-23.7,-31.05,758.0
1787131540.0840602,-3.144,1.87,7.997,-2.614,-0.227,-0.408,-8.85,-29.7,-38.25,758.0
1787131540.0842104,-2.851,1.056,8.191,-2.35,-0.17,-0.451,-8.1,-30.45,-44.1,758.0
1787131540.0842187,-3.158,-1.073,8.645,-2.105,-0.046,-0.466,-8.25,-31.05,-42.75,758.0
1787131540.2891304,-2.976,-0.225,9.345,-0.045,0.034,-0.022,-10.05,-32.4,-48.9,2244.0
1787131540.2891574,-3.074,-0.275,9.254,-0.025,0.028,-0.017,-11.55,-31.95,-46.35,2244.0
1787131540.2891636,-2.99,-0.208,9.175,-0.021,0.019,-0.01,-11.55,-33.15,-47.1,2244.0
1787131540.4929051,-2.674,0.06,8.265,1.873,0.466,0.192,-8.85,-29.25,-43.65,2167.0
1787131540.4929292,-3.096,0.527,7.882,2.235,0.466,0.26,-7.05,-28.95,-38.25,2167.0
1787131540.4929402,-3.129,1.255,7.475,2.457,0.447,0.338,-8.7,-27.9,-36.6,2167.0
1787131540.6983523,-3.438,5.947,7.219,3.329,0.056,1.474,-1.65,-11.7,-18.9,898.0
1787131540.698377,-3.328,7.491,7.135,3.03,-0.096,1.307,0.0,-11.55,-17.55,898.0
1787131540.6983886,-3.156,8.033,7.377,2.193,-0.12,1.012,2.55,-7.2,-15.0,898.0
1787131540.9027884,-3.596,6.481,7.875,-2.213,-0.081,-0.697,0.0,-9.15,-15.0,1018.0
1787131540.9028134,-3.484,6.11,7.628,-2.572,-0.205,-0.797,-1.05,-13.05,-19.05,1018.0
1787131540.9028244,-3.579,4.863,7.539,-2.838,-0.317,-0.827,-1.95,-15.6,-19.65,1018.0
1787131541.1115792,-2.722,0.479,8.322,-1.504,-0.117,-0.427,-10.2,-29.55,-41.25,2128.0
1787131541.1116047,-2.476,0.249,8.44,-1.179,-0.016,-0.308,-10.8,-29.7,-43.65,2128.0
1787131541.1116154,-2.856,-0.072,8.535,-0.806,0.003,-0.244,-10.2,-31.05,-43.5,2128.0
1787131541.3121014,-2.952,0.249,9.337,0.053,-0.043,0.017,-9.75,-31.5,-44.7,2192.0
1787131541.3121257,-2.976,0.12,9.443,0.048,-0.022,0.004,-10.5,-31.5,-46.05,2213.0
1787131541.3121367,-3.098,0.103,9.495,0.062,0.01,0.011,-10.5,-31.05,-45.3,2213.0
1787131541.5168836,-2.902,0.321,9.201,-0.069,-0.066,-0.041,-10.35,-32.4,-45.15,2188.0
1787131541.721705,-3.323,3.338,7.321,2.729,0.248,0.956,-5.85,-20.85,-27.45,833.0
1787131541.7217302,-3.117,4.405,7.298,2.617,0.202,0.828,-4.35,-18.45,-23.55,833.0
1787131541.7217417,-3.419,4.954,7.769,2.455,0.176,0.771,-4.2,-17.55,-22.5,833.0
1787131541.9268925,-2.959,6.752,8.217,-0.481,-0.039,-0.179,-0.45,-9.0,-15.9,1099.0
1787131541.9269156,-3.031,6.407,7.944,-0.812,-0.035,-0.294,-2.1,-11.55,-15.45,1099.0
1787131541.9269264,-3.203,6.328,7.97,-1.274,-0.104,-0.496,-0.9,-11.7,-17.1,1099.0
1787131542.1322167,-2.638,2.131,8.66,-2.941,-0.101,-0.624,-6.6,-27.75,-35.25,735.0
1787131542.1322417,-3.002,1.348,8.77,-2.613,-0.029,-0.585,-8.55,-30.15,-36.75,735.0
1787131542.1322525,-2.842,0.778,8.72,-2.216,0.047,-0.514,-9.3,-31.2,-40.8,735.0
1787131542.3362975,-3.242,-0.52,8.43,0.113,-0.123,0.023,-9.6,-32.85,-48.9,2280.0
1787131542.3363216,-3.182,-0.441,8.739,0.053,-0.129,-0.023,-11.7,-31.05,-50.55,2280.0
1787131542.3363328,-3.225,-0.311,8.959,0.001,-0.071,0.005,-11.85,-32.85,-47.4,2280.0
1787131542.541775,-3.34,-0.484,9.483,-0.04,0.061,-0.024,-10.5,-32.25,-49.35,2261.0
1787131542.5418012,-3.613,-0.464,9.486,-0.054,0.05,-0.026,-10.8,-32.85,-47.4,2261.0
1787131542.5418122,-3.44,-0.419,9.335,-0.111,-0.003,-0.044,-10.2,-32.55,-48.0,2261.0
1787131542.745664,-3.328,-0.718,8.978,0.162,0.023,0.053,-12.0,-31.5,-48.3,2224.0
1787131542.7456892,-3.177,-0.704,8.95,0.262,0.006,0.085,-10.35,-31.65,-48.45,2224.0
1787131542.7457004,-3.081,-0.699,8.885,0.389,-0.013,0.123,-11.7,-33.0,-48.75,2224.0
1787131542.9511647,-2.998,3.074,7.75,2.501,0.348,0.776,-5.7,-22.95,-29.85,2230.0
1787131542.9511843,-3.23,3.354,7.891,2.402,0.362,0.846,-4.65,-21.0,-26.25,2230.0
1787131542.95119,-3.464,3.761,7.98,2.301,0.277,0.77,-4.8,-20.85,-26.4,2230.0
1787131543.155444,-3.493,5.708,8.607,-0.221,-0.033,-0.066,-2.1,-13.5,-19.5,870.0
1787131543.1554685,-3.318,5.751,8.473,-0.839,-0.033,-0.3,-2.55,-13.5,-18.75,870.0
1787131543.3598914,-3.302,0.254,8.928,-1.927,0.057,-0.461,-8.55,-30.15,-44.1,784.0
1787131543.3599155,-2.935,0.139,8.626,-1.725,0.169,-0.448,-8.7,-31.8,-44.7,2192.0
1787131543.3599267,-2.772,-0.316,8.971,-1.327,0.228,-0.426,-9.0,-32.25,-47.55,2192.0
1787131543.5660696,-3.019,-1.125,8.519,0.052,-0.091,-0.042,-12.15,-33.6,-51.0,2178.0
1787131543.566095,-2.849,-1.008,8.677,0.049,-0.07,-0.054,-10.5,-33.0,-51.6,2178.0
1787131543.566106,-3.036,-1.034,8.916,0.051,-0.022,-0.044,-11.55,-34.8,-49.65,2217.0
1787131543.7701383,-3.191,-0.821,9.258,0.035,-0.013,-0.014,-11.7,-34.5,-49.8,2193.0
1787131543.7701638,-2.964,-0.874,9.189,0.023,0.015,0.001,-11.25,-33.45,-49.8,2255.0
1787131543.7701747,-3.069,-0.879,9.158,0.064,0.049,0.021,-11.55,-33.9,-48.9,2255.0
1787131543.974959,-2.914,-0.01,8.071,2.372,-0.082,0.465,-10.2,-29.55,-41.25,2218.0
1787131543.9751372,-2.813,0.702,7.968,2.541,-0.028,0.525,-8.7,-28.8,-39.15,2218.0
1787131543.9752011,-2.619,1.899,7.8,2.667,0.169,0.608,-8.25,-26.1,-35.4,2218.0
1787131544.1798704,-3.393,5.14,8.708,1.112,0.051,0.361,-3.9,-16.35,-21.15,735.0
1787131544.179951,-3.297,5.404,8.689,0.884,0.028,0.295,-1.2,-15.6,-19.65,735.0
1787131544.1799624,-3.28,5.794,8.444,0.684,0.051,0.202,-1.8,-13.5,-19.8,912.0
1787131544.3840995,-3.711,4.86,8.406,-2.073,-0.014,-0.643,-4.05,-16.95,-20.85,919.0
1787131544.3841233,-3.771,4.676,8.416,-2.48,-0.127,-0.687,-2.55,-18.15,-24.15,919.0
1787131544.384134,-3.539,4.034,8.365,-2.696,-0.184,-0.618,-3.6,-20.1,-25.35,719.0
1787131544.5891924,-3.51,-1.389,8.741,-1.65,0.137,-0.471,-9.75,-32.25,-45.0,2131.0
1787131544.589217,-3.297,-0.292,8.358,-1.31,0.095,-0.353,-12.45,-33.45,-48.0,2131.0
1787131544.5892284,-3.304,-0.984,8.356,-1.128,-0.015,-0.364,-12.45,-33.45,-49.35,2131.0
1787131544.7931705,-3.203,-0.982,9.091,0.152,-0.087,0.077,-13.35,-33.15,-50.7,2167.0
1787131544.9989784,-3.057,-1.051,8.736,0.371,0.037,0.121,-12.15,-34.35,-49.2,2217.0
1787131544.9991288,-3.235,-1.061,8.677,0.877,0.052,0.26,-11.55,-33.15,-48.15,2217.0
1787131544.9991515,-3.019,-1.317,8.511,1.403,0.062,0.427,-12.15,-33.15,-48.15,2217.0
1787131545.2033331,-2.95,4.537,8.408,2.279,0.302,0.77,-3.3,-17.7,-23.1,852.0
1787131545.2033565,-3.077,4.815,8.641,2.021,0.3,0.719,-2.85,-16.95,-22.35,852.0
1787131545.2033675,-3.263,5.157,8.456,1.966,0.238,0.706,-1.95,-16.8,-19.95,852.0
1787131545.4084053,-3.084,6.376,7.587,-0.463,0.02,-0.217,0.6,-9.15,-16.05,1117.0
1787131545.4084303,-3.038,6.242,7.393,-0.506,0.002,-0.197,-0.3,-10.05,-15.45,1117.0
1787131545.4084413,-2.88,5.813,7.281,-0.531,0.01,-0.217,0.0,-9.6,-16.05,1117.0
1787131545.612763,-3.29,4.082,8.638,-2.833,-0.221,-0.76,-4.2,-19.05,-26.25,779.0
1787131545.6127872,-3.019,3.527,8.777,-3.013,-0.231,-0.791,-5.7,-24.45,-29.25,779.0
1787131545.6127985,-2.978,2.816,8.99,-3.02,-0.183,-0.728,-6.75,-25.2,-32.1,779.0
1787131545.8177545,-2.89,-0.922,8.279,-1.092,0.092,-0.258,-11.7,-33.75,-49.8,2142.0
1787131545.81778,-3.096,-1.314,8.279,-0.835,0.06,-0.124,-11.25,-32.55,-51.3,2262.0
1787131545.8177912,-2.974,-1.319,8.279,-0.595,-0.027,-0.058,-11.55,-34.8,-51.0,2262.0
1787131546.026448,-3.373,-1.228,9.285,0.173,-0.063,0.028,-11.1,-33.6,-50.4,2250.0
1787131546.0264738,-3.335,-1.3,9.428,0.288,-0.001,0.065,-11.85,-34.8,-51.0,2250.0
1787131546.026485,-3.393,-1.092,9.565,0.319,-0.013,0.012,-10.5,-34.2,-51.3,2197.0
1787131546.2276273,-3.184,-1.053,8.763,0.875,0.035,0.204,-11.55,-32.4,-49.65,2214.0
1787131546.2276528,-2.902,-0.986,8.619,1.338,0.032,0.293,-10.95,-33.0,-47.55,2182.0
1787131546.2276647,-2.763,-1.109,8.487,1.914,0.037,0.382,-9.45,-31.8,-46.5,2182.0
1787131546.4305837,-3.05,4.436,7.412,3.154,0.399,0.967,-3.9,-18.75,-24.45,978.0
1787131546.6387181,-3.373,5.193,7.884,-2.211,-0.062,-0.634,-2.55,-15.45,-20.55,1003.0
1787131546.6387427,-3.278,4.748,7.669,-2.335,-0.132,-0.524,-1.35,-17.4,-20.85,1003.0
1787131546.6387544,-3.534,4.547,7.563,-2.398,-0.287,-0.448,-4.05,-19.65,-24.6,1003.0
1787131546.8415868,-2.55,-0.127,8.95,-1.12,0.084,-0.335,-9.6,-30.45,-44.1,2171.0
1787131546.841612,-2.394,-0.218,9.031,-0.915,0.101,-0.34,-11.7,-33.0,-43.95,2171.0
1787131546.8416235,-2.835,-0.091,8.715,-0.796,0.106,-0.302,-9.75,-32.25,-46.5,2171.0
1787131547.0469851,-2.581,-0.225,9.017,-0.043,-0.06,-0.031,-11.25,-31.05,-49.05,2217.0
1787131547.04719,-2.739,-0.302,9.179,-0.059,0.017,-0.035,-12.45,-32.55,-47.55,2217.0
1787131547.0471969,-2.878,-0.527,9.39,-0.01,0.093,-0.022,-10.2,-33.75,-48.0,2217.0
1787131547.251693,-2.84,-0.275,9.309,0.054,0.032,-0.016,-11.7,-32.55,-47.55,2210.0
1787131547.2517178,-2.772,-0.309,9.215,0.078,0.043,0.003,-11.55,-32.85,-48.45,2210.0
1787131547.2517292,-2.638,-0.443,9.143,0.199,0.072,0.045,-12.15,-32.85,-46.65,2210.0
1787131547.4557672,-2.758,1.772,7.879,2.343,0.227,0.613,-7.35,-25.5,-34.5,1974.0
1787131547.4557908,-3.01,1.992,7.994,2.318,0.198,0.575,-7.8,-26.25,-32.7,1974.0
1787131547.455802,-2.655,2.806,7.791,2.241,0.269,0.625,-6.3,-23.85,-27.9,1974.0
1787131547.6611364,-3.354,6.457,8.655,1.05,-0.062,0.281,-0.9,-15.15,-18.15,835.0
1787131547.6611707,-3.172,6.515,9.029,0.334,-0.049,0.057,-1.35,-14.25,-19.05,1090.0
1787131547.6611772,-3.349,6.455,9.129,-0.299,-0.001,-0.185,-2.4,-12.9,-18.9,1090.0
1787131547.867807,-3.084,3.395,8.272,-2.324,-0.234,-0.476,-6.0,-21.75,-27.0,798.0
1787131547.867832,-2.942,2.885,8.229,-2.346,-0.192,-0.502,-5.4,-24.15,-29.25,798.0
1787131547.8678432,-2.907,2.433,8.38,-2.371,-0.095,-0.524,-6.6,-27.0,-33.0,798.0
1787131548.0703363,-2.602,-0.871,8.897,-1.041,0.148,-0.403,-11.85,-31.95,-46.65,2269.0
1787131548.2754064,-3.335,-1.245,8.952,0.032,-0.001,-0.007,-13.65,-33.9,-51.45,2218.0
1787131548.2754312,-3.409,-1.319,9.002,0.053,-0.001,0.003,-12.75,-33.45,-50.85,2218.0
1787131548.2754426,-3.349,-1.288,9.067,0.076,-0.005,-0.005,-12.15,-33.6,-52.95,2323.0
1787131548.4824557,-3.122,-0.615,8.636,1.023,-0.096,0.222,-11.7,-33.0,-49.05,2222.0
1787131548.4824803,-3.335,-0.618,8.823,1.258,-0.106,0.28,-10.8,-31.65,-46.35,2222.0
1787131548.4824915,-3.177,-0.273,8.77,1.487,-0.127,0.339,-11.7,-33.45,-46.05,2220.0
1787131548.684636,-3.158,5.605,7.817,2.834,-0.125,1.014,-4.35,-15.75,-22.35,957.0
1787131548.6846614,-2.337,5.816,8.55,1.94,-0.15,0.739,-3.45,-15.9,-19.2,957.0
1787131548.6846726,-2.6,6.311,8.863,0.719,-0.048,0.318,-2.85,-14.25,-19.8,1115.0
1787131548.8899603,-2.971,5.286,8.056,-0.757,-0.046,-0.245,-3.15,-13.2,-18.9,1126.0
1787131548.8899887,-2.749,5.76,7.484,-1.125,-0.085,-0.478,-3.3,-14.25,-18.0,1126.0
1787131548.89,-2.775,4.882,8.095,-1.33,0.062,-0.599,-2.85,-14.55,-19.8,1056.0
1787131549.0940683,-3.493,1.496,9.17,-2.512,-0.066,-0.899,-10.95,-27.9,-38.7,911.0
1787131549.0940924,-2.847,1.228,8.947,-2.29,0.066,-0.844,-10.5,-29.55,-40.65,911.0
1787131549.0941079,-2.835,-0.165,8.906,-1.938,0.248,-0.686,-11.7,-30.6,-42.75,911.0
1787131549.2993462,-2.978,-1.166,8.078,0.205,-0.268,0.052,-12.6,-33.15,-50.4,2252.0
1787131549.299374,-2.854,-0.996,8.231,0.317,-0.264,0.062,-15.0,-33.0,-48.3,2252.0
1787131549.2993853,-2.782,-0.725,8.353,0.282,-0.228,0.053,-14.25,-33.75,-48.3,2252.0
1787131549.5044484,-3.199,-0.539,9.924,-0.06,-0.006,0.036,-14.25,-32.55,-49.35,2216.0
1787131549.5044734,-3.215,-0.479,9.799,-0.092,-0.023,0.01,-12.9,-33.15,-47.1,2216.0
1787131549.5044842,-3.218,-0.409,9.582,-0.172,-0.056,-0.004,-13.5,-33.75,-48.0,2216.0
1787131549.7086112,-2.799,-1.314,8.739,0.106,0.232,-0.021,-15.15,-32.85,-49.95,2181.0
1787131549.7086358,-3.189,-1.12,8.588,0.648,0.185,0.008,-14.1,-32.4,-48.9,2181.0
1787131549.913861,-3.867,6.859,8.021,3.204,-0.049,1.071,-5.85,-14.25,-19.5,2235.0
1787131549.9138873,-3.27,6.613,8.633,2.126,-0.194,0.744,-4.65,-11.4,-16.65,1121.0
1787131549.9138985,-3.091,7.884,8.942,0.996,-0.313,0.364,-4.95,-11.4,-16.35,1121.0
1787131550.118211,-3.448,5.296,7.676,-1.488,-0.205,-0.152,-4.2,-12.15,-17.4,1182.0
1787131550.1182353,-3.369,4.944,7.597,-1.731,-0.295,-0.232,-5.85,-13.8,-19.05,1068.0
1787131550.3236308,-2.935,1.439,8.796,-1.63,-0.062,-0.371,-11.1,-28.5,-37.8,1011.0
1787131550.3236551,-2.744,0.977,8.921,-1.462,-0.025,-0.344,-12.45,-29.55,-40.2,2035.0
1787131550.3236666,-2.703,0.453,8.93,-1.298,0.007,-0.296,-12.6,-30.15,-39.6,2035.0
1787131550.527844,-2.784,-0.192,9.079,-0.149,0.016,-0.02,-14.1,-33.15,-45.6,2188.0
1787131550.5278766,-2.847,-0.124,9.127,-0.055,0.037,-0.017,-13.65,-32.4,-44.85,2198.0
1787131550.5278876,-3.153,-0.146,9.194,-0.003,0.004,-0.031,-11.7,-31.8,-45.75,2198.0
1787131550.7324924,-3.067,0.048,9.376,0.014,0.028,-0.009,-12.0,-32.25,-45.3,2178.0
1787131550.732518,-2.919,-0.022,9.309,-0.01,0.029,0.002,-12.6,-31.2,-47.1,2208.0
1787131550.732529,-3.062,0.045,9.306,0.016,0.034,0.01,-12.45,-32.25,-45.0,2208.0
1787131550.937706,-2.844,-0.012,9.086,0.557,0.034,0.111,-13.35,-30.9,-46.35,2177.0
1787131550.93773,-3.067,0.139,8.792,0.855,0.081,0.149,-12.0,-30.6,-43.5,2177.0
1787131550.937741,-2.761,0.316,8.765,1.125,0.089,0.156,-12.75,-29.85,-40.95,2177.0
1787131551.1418772,-3.67,3.931,8.203,1.667,0.364,0.306,-6.6,-20.4,-24.6,891.0
1787131551.1419024,-3.522,3.95,8.236,1.499,0.237,0.377,-6.45,-17.55,-23.25,891.0
1787131551.1419182,-3.656,4.578,8.171,1.356,0.123,0.354,-5.4,-15.6,-21.75,915.0
1787131551.34831,-3.589,5.27,8.088,-0.397,-0.041,-0.083,-4.05,-13.5,-18.3,1051.0
1787131551.5522103,-3.093,0.572,8.358,-1.792,0.01,-0.376,-12.45,-31.05,-43.95,2170.0
1787131551.5522816,-3.819,-0.713,8.43,-1.643,-0.031,-0.303,-11.85,-33.9,-46.35,2170.0
1787131551.552293,-3.218,-0.567,8.37,-1.42,-0.048,-0.255,-12.9,-32.4,-46.65,2170.0
1787131551.7624102,-3.227,-1.223,8.875,0.251,-0.024,0.055,-12.9,-32.85,-51.0,2257.0
1787131551.762435,-3.405,-1.142,9.069,0.223,-0.082,0.039,-15.0,-32.25,-50.85,2257.0
1787131551.7624462,-3.206,-1.168,9.187,0.203,-0.057,0.016,-14.25,-33.45,-50.55,2257.0
1787131551.9631777,-3.179,-0.977,9.17,-0.025,0.007,0.003,-13.35,-31.95,-48.9,2179.0
1787131551.9632022,-3.021,-1.008,9.064,0.013,-0.002,0.02,-14.4,-31.95,-50.4,2179.0
1787131551.9632137,-3.148,-1.034,9.029,0.116,0.022,0.03,-12.9,-33.6,-50.7,2179.0
1787131552.1666157,-3.275,0.833,7.532,3.301,-0.219,0.873,-10.2,-27.15,-39.45,2057.0
1787131552.1666408,-2.392,2.641,6.661,3.441,-0.347,0.749,-9.0,-26.85,-33.9,2057.0
1787131552.1666517,-2.219,2.758,7.271,3.314,-0.099,0.796,-9.3,-23.55,-32.25,2057.0
1787131552.3707347,-2.899,7.056,8.566,1.178,0.016,0.34,-2.7,-8.7,-15.9,1179.0
1787131552.3707597,-2.928,7.005,8.516,0.692,0.038,0.152,-3.15,-7.8,-14.1,1179.0
1787131552.3707705,-2.787,7.228,8.404,0.355,0.082,0.037,-2.1,-7.2,-14.7,1179.0
1787131552.575619,-2.602,5.861,7.621,-1.974,-0.061,-0.684,-2.55,-11.85,-16.5,1147.0
1787131552.5756426,-3.012,5.619,7.659,-2.199,-0.034,-0.739,-2.85,-12.75,-18.75,1184.0
1787131552.5756533,-3.455,5.286,7.944,-2.49,-0.118,-0.823,-6.3,-14.25,-19.5,1184.0
1787131552.780561,-2.847,0.124,8.799,-2.19,0.079,-0.682,-13.2,-31.05,-42.45,1184.0
1787131552.7805853,-2.567,-0.244,8.724,-2.012,0.075,-0.61,-14.7,-31.8,-45.3,2202.0
1787131552.7805965,-2.993,-0.491,8.368,-1.563,0.14,-0.366,-12.45,-31.8,-46.5,2202.0
1787131552.981227,-3.256,-1.173,9.17,0.126,0.084,0.088,-14.4,-35.1,-48.15,2204.0
1787131553.18988,-3.089,-0.802,8.959,0.177,-0.002,0.043,-14.25,-33.0,-48.75,2157.0
1787131553.189904,-2.89,-0.807,8.969,0.171,-0.068,0.043,-14.1,-33.15,-50.4,2157.0
1787131553.1899154,-2.782,-0.867,9.033,0.209,-0.047,0.066,-13.95,-32.55,-49.8,2157.0
1787131553.3914611,-2.622,0.448,8.116,2.197,0.202,0.52,-11.7,-29.85,-39.45,2133.0
1787131553.3942382,-3.038,0.385,8.248,2.474,0.247,0.604,-10.2,-27.15,-36.9,2133.0
1787131553.394263,-3.072,1.621,8.14,2.449,0.254,0.614,-9.45,-24.15,-33.45,2133.0
1787131553.5991535,-3.036,6.158,8.473,0.975,0.057,0.404,-3.3,-14.25,-18.0,1064.0
1787131553.5991766,-2.976,6.39,8.538,0.505,0.085,0.271,-2.55,-11.55,-17.25,1064.0
1787131553.5991874,-3.22,6.457,8.653,0.123,0.071,0.149,-2.85,-12.75,-18.0,1064.0
1787131553.804381,-3.273,4.379,8.408,-2.004,-0.041,-0.754,-5.4,-17.1,-22.5,1164.0
1787131553.8044052,-3.002,4.099,8.377,-2.485,-0.071,-0.908,-5.4,-19.8,-26.55,1164.0
1787131553.8044162,-3.309,3.675,8.473,-2.885,-0.088,-1.031,-6.0,-18.75,-27.75,1164.0
1787131554.0092108,-3.086,-1.001,8.145,-0.777,0.194,-0.468,-14.25,-31.8,-47.55,2172.0
1787131554.0092354,-3.146,-1.465,8.224,-0.405,0.109,-0.226,-15.15,-31.95,-48.15,2172.0
1787131554.0092475,-3.031,-1.073,8.102,-0.064,-0.068,-0.026,-15.45,-30.3,-48.3,2172.0
1787131554.2145064,-3.381,-0.814,9.493,0.225,-0.06,0.077,-14.7,-33.0,-48.75,2227.0
1787131554.2145317,-3.555,-0.567,9.524,0.12,-0.1,0.001,-15.6,-33.6,-48.45,2227.0
1787131554.214543,-3.263,-0.591,9.711,-0.043,-0.06,-0.047,-15.15,-31.65,-48.15,2227.0
1787131554.4192867,-3.057,-0.905,8.909,0.009,0.1,0.022,-16.5,-32.55,-47.25,2194.0
1787131554.4193118,-3.175,-0.977,8.825,0.156,0.081,0.053,-15.15,-33.15,-48.15,2194.0
1787131554.4193232,-3.122,-0.948,8.672,0.299,0.066,0.074,-15.45,-33.0,-46.5,2194.0
1787131554.621573,-3.045,1.911,7.592,2.76,0.322,0.889,-11.1,-26.55,-34.95,1213.0
1787131554.828323,-3.409,5.657,7.901,0.274,0.134,0.004,-4.05,-11.55,-16.5,1097.0
1787131554.8283477,-3.364,5.653,7.702,0.113,0.13,-0.125,-3.3,-12.3,-18.3,1097.0
1787131554.828359,-3.261,5.401,7.491,0.031,0.135,-0.175,-3.15,-12.15,-18.45,1111.0
1787131555.0335867,-4.257,4.681,9.05,-3.113,-0.029,-1.36,-9.0,-20.55,-25.5,1079.0
1787131555.0336115,-3.778,3.467,9.215,-3.687,-0.141,-1.426,-10.2,-23.25,-29.85,785.0
1787131555.0336225,-3.855,2.583,9.325,-3.996,-0.285,-1.309,-11.85,-27.75,-35.55,785.0
1787131555.2379649,-2.935,-2.133,7.348,-0.569,-0.228,-0.07,-18.3,-31.8,-50.85,2253.0
1787131555.2379897,-2.909,-1.867,7.518,-0.044,-0.225,0.078,-18.0,-31.8,-52.35,2253.0
1787131555.2380004,-3.026,-1.525,7.436,0.293,-0.294,0.085,-17.25,-32.25,-52.35,2221.0
1787131555.4428113,-3.311,-1.164,9.85,0.194,-0.056,0.057,-17.85,-32.85,-48.45,2230.0
1787131555.4428363,-3.115,-1.188,9.977,0.102,0.017,0.026,-17.25,-30.6,-49.35,2230.0
1787131555.4428477,-3.551,-1.116,9.907,0.047,0.055,0.014,-17.25,-33.75,-49.05,2224.0
1787131555.6483197,-3.007,-1.341,8.511,0.722,-0.026,0.326,-15.6,-31.95,-47.7,2246.0
1787131555.6483445,-2.945,-1.118,8.483,1.063,-0.12,0.459,-16.5,-31.05,-48.3,2246.0
1787131555.6483557,-3.019,-1.286,8.368,1.552,-0.199,0.606,-16.2,-31.5,-46.05,2244.0
1787131555.8521125,-1.956,3.29,7.731,3.117,-0.018,1.445,-8.1,-19.65,-28.95,1839.0
1787131555.8521378,-2.377,4.334,8.329,2.786,0.095,1.404,-6.45,-19.05,-24.45,1839.0
1787131555.8521485,-2.753,4.908,8.315,2.546,0.038,1.348,-5.85,-16.95,-21.3,1839.0
1787131556.0573194,-2.44,6.28,8.088,-0.918,0.035,-0.463,-2.55,-9.15,-15.75,1195.0
1787131556.0573447,-2.186,6.151,7.934,-1.068,-0.018,-0.58,-2.4,-10.2,-15.9,1195.0
