timestamp,ax,ay,az,gx,gy,gz,mx,my,mz,dist
1786369227.6243656,0.68,9.019,3.828,-0.504,-0.793,0.063,93.3,15.15,80.7,57.0
1786369227.624406,0.96,9.079,3.79,-0.476,-0.667,0.095,90.9,12.3,80.55,57.0
1786369227.6244254,1.183,8.777,3.68,-0.437,-0.495,0.14,91.2,11.55,82.65,57.0
1786369227.6244426,-0.17,8.684,3.371,-0.123,-0.089,0.359,90.9,12.75,82.05,38.0
1786369227.6244621,-0.17,8.727,3.417,-0.122,-0.103,0.341,93.6,12.45,81.45,38.0
1786369227.6245003,-0.057,8.622,3.51,-0.099,-0.093,0.321,92.4,13.5,80.85,38.0
1786369227.6245167,0.56,8.605,4.298,-0.123,0.085,0.172,92.1,12.45,82.2,52.0
1786369227.6245403,0.658,8.523,4.355,-0.118,0.103,0.163,91.65,14.25,82.05,52.0
1786369227.624561,0.596,8.475,4.453,-0.136,0.102,0.145,91.95,13.05,82.65,52.0
1786369227.6245768,0.84,8.116,5.181,-0.177,0.04,0.055,93.6,12.9,80.7,42.0
1786369227.6245923,0.943,8.234,5.435,-0.171,0.013,0.102,92.85,13.65,81.0,42.0
1786369227.6246064,1.211,8.246,5.507,-0.189,0.009,0.104,92.4,12.3,81.3,42.0
1786369227.6246212,0.709,7.626,6.404,-0.604,0.169,0.098,94.2,10.05,83.1,38.0
1786369227.6246355,0.785,7.269,6.515,-0.628,0.041,0.139,94.65,9.6,83.1,43.0
1786369227.6246498,0.907,7.458,6.536,-0.703,-0.14,0.158,95.85,10.2,82.5,43.0
1786369227.6246643,1.958,7.827,7.839,-0.981,-0.196,0.367,97.95,5.7,85.35,41.0
1786369227.624679,1.834,7.728,7.958,-1.069,-0.172,0.416,96.3,4.35,85.5,50.0
1786369227.6246934,1.927,7.786,7.956,-1.181,-0.142,0.483,97.2,5.7,84.15,50.0
1786369227.624709,0.397,6.732,5.945,-1.706,0.193,0.014,102.0,-4.95,80.1,48.0
1786369227.624727,0.105,6.416,5.926,-1.706,0.324,-0.241,101.4,-5.85,79.2,53.0
1786369227.6247427,-0.247,6.397,5.734,-1.727,0.423,-0.455,102.75,-8.4,78.3,53.0
1786369227.6247578,-1.195,3.567,6.816,-0.71,0.196,-2.342,98.7,-25.05,68.4,52.0
1786369227.624772,-1.437,3.395,7.439,-0.629,0.102,-2.64,98.7,-26.55,68.4,49.0
1786369227.6247869,-0.979,2.423,7.786,-0.541,-0.016,-2.884,95.7,-30.15,67.95,49.0
1786369227.624802,-0.316,2.406,5.974,0.306,0.161,-3.25,71.55,-40.5,70.2,49.0
1786369227.624817,-0.615,2.018,6.924,0.941,0.194,-3.467,67.5,-38.85,70.35,49.0
1786369227.6248314,-1.044,2.298,6.943,1.395,-0.073,-3.556,64.65,-38.85,74.1,48.0
1786369227.6248467,0.998,5.672,9.783,-0.168,-0.579,-0.955,29.85,-12.15,86.25,76.0
1786369227.6248612,0.474,5.775,9.239,-0.538,-0.34,-0.748,30.6,-11.7,84.0,76.0
1786369227.624876,-0.072,5.715,9.093,-0.757,-0.118,-0.503,31.2,-11.85,84.6,76.0
1786369227.62489,-0.747,2.409,6.249,-2.228,0.211,-0.125,32.4,-13.8,80.55,96.0
1786369227.6249046,-0.62,1.255,5.988,-1.565,0.236,-0.263,31.95,-15.75,80.55,96.0
1786369227.6249201,-1.494,1.437,5.6,-0.709,-0.091,-0.363,33.6,-15.9,80.4,96.0
1786369227.624935,0.601,4.216,10.297,0.884,-0.213,-0.135,27.15,-8.4,78.3,91.0
1786369227.6249495,-0.11,4.202,10.003,0.717,0.028,-0.131,25.95,-8.85,79.35,91.0
1786369227.624964,-0.072,4.142,9.392,0.567,0.079,-0.082,26.7,-8.1,77.55,91.0
1786369227.6249776,-1.295,4.017,8.274,0.676,0.488,-0.448,27.15,-4.95,80.1,86.0
1786369227.6249924,-1.276,4.293,8.531,0.8,0.123,-0.384,26.25,-3.6,81.75,86.0
1786369227.6250062,-0.893,4.915,8.447,0.728,-0.094,-0.333,26.55,-2.1,82.95,86.0
1786369227.6250207,0.795,4.142,5.978,-0.296,0.722,0.038,28.65,-1.5,82.35,73.0
1786369227.6250355,1.044,3.948,6.12,-0.239,0.763,0.132,31.8,0.45,84.3,73.0
1786369227.6250496,0.436,3.754,7.556,0.202,0.614,0.166,30.3,0.15,85.8,73.0
1786369227.625064,-3.136,7.408,7.906,0.013,-0.209,0.298,29.85,2.1,87.0,105.0
1786369227.625078,-2.464,6.78,7.841,-0.286,-0.16,0.249,30.15,1.05,86.1,105.0
1786369227.625092,-2.143,6.187,8.097,-0.312,0.034,0.192,29.55,0.9,85.05,105.0
1786369227.625106,0.524,4.01,6.596,-0.693,0.631,-0.343,28.95,-0.75,85.35,103.0
1786369227.6251204,0.244,3.642,6.773,-0.532,0.718,-0.306,30.3,-1.65,85.8,103.0
1786369227.6251352,-0.294,3.591,7.132,-0.21,0.574,-0.214,30.9,-2.7,84.9,103.0
1786369227.625149,-1.721,5.025,8.818,0.217,-0.369,0.251,29.4,-3.45,86.4,95.0
1786369227.625163,-1.472,5.195,8.878,0.114,-0.482,0.262,27.75,-2.85,84.75,95.0
1786369227.6251776,-1.298,5.025,8.93,-0.03,-0.455,0.24,28.65,-3.0,83.4,95.0
1786369227.6251917,-0.802,4.511,7.944,-0.168,-0.04,-0.201,26.25,-5.85,82.2,90.0
1786369227.6252067,-0.757,4.547,7.989,-0.129,-0.054,-0.198,25.95,-4.95,84.15,90.0
1786369227.625221,-0.654,4.563,8.083,-0.091,-0.088,-0.182,25.95,-3.45,83.4,64.0
1786369227.6252353,-0.804,4.48,8.499,-0.122,-0.026,0.002,24.75,-5.85,82.5,125.0
1786369227.6252506,-1.006,4.391,8.456,-0.114,0.003,-0.001,25.2,-6.15,82.65,125.0
1786369227.6252651,-0.948,4.36,8.444,-0.105,0.026,-0.017,24.75,-5.55,84.0,98.0
1786369227.62528,-0.675,4.101,8.43,-0.071,0.072,-0.04,25.05,-6.3,82.95,87.0
1786369227.6252944,-0.74,4.166,8.523,-0.059,0.048,-0.018,23.4,-5.7,84.15,87.0
1786369227.6253085,-0.876,4.094,8.55,-0.056,0.006,0.018,25.8,-6.75,82.5,87.0
1786369227.625323,-1.051,4.123,8.566,-0.079,0.021,0.033,23.85,-6.9,82.05,80.0
1786369227.6253371,-1.058,4.135,8.574,-0.075,0.02,0.013,25.65,-6.9,83.1,80.0
1786369227.625351,-1.027,4.089,8.547,-0.036,0.04,0.002,25.65,-5.7,82.35,80.0
1786369227.6253643,-1.039,4.051,8.545,-0.016,0.012,-0.009,24.3,-8.7,83.25,77.0
1786369227.62538,-0.864,4.12,8.559,-0.003,-0.002,-0.004,24.75,-7.05,83.7,77.0
1786369227.625394,-0.828,4.142,8.576,-0.001,0.013,-0.009,25.05,-6.75,82.2,65.0
1786369227.6254084,-1.01,4.061,8.519,-0.013,0.029,0.003,25.65,-6.9,82.65,79.0
1786369227.6254222,-0.979,4.015,8.55,-0.003,0.033,0.004,25.05,-7.5,82.95,79.0
1786369227.6254377,-1.058,4.089,8.595,-0.005,0.043,0.006,24.75,-7.8,81.0,79.0
1786369227.6254513,-0.974,4.192,8.602,-0.002,0.012,0.019,25.5,-7.5,82.5,73.0
1786369227.625465,-1.022,4.149,8.641,-0.011,0.011,0.012,25.05,-7.8,83.25,73.0
1786369227.6254904,-0.974,4.156,8.528,-0.014,0.012,0.007,24.0,-8.25,83.25,73.0
1786369227.6255043,-0.979,4.13,8.504,0.017,-0.024,-0.016,24.75,-7.5,84.75,72.0
1786369227.6255186,-0.929,4.123,8.452,0.03,-0.033,-0.012,26.4,-6.45,84.15,72.0
1786369227.6255324,-0.936,4.12,8.468,0.048,-0.041,-0.01,23.85,-7.65,84.15,72.0
1786369227.7569666,-0.869,4.159,8.521,-0.04,0.014,0.007,23.4,-6.45,84.6,81.0
1786369227.7570698,-0.864,4.171,8.466,-0.03,0.016,0.012,24.75,-6.75,84.0,87.0
1786369227.7570984,-0.907,4.156,8.471,-0.023,0.013,0.012,23.85,-6.9,82.05,87.0
1786369227.9622707,-0.919,4.106,8.547,-0.014,0.024,0.004,24.0,-6.3,82.2,86.0
1786369227.9623256,-1.065,4.166,8.605,-0.014,0.011,0.005,24.75,-7.5,83.25,82.0
1786369227.9623497,-1.025,4.128,8.59,-0.018,0.001,-0.01,24.15,-6.45,81.6,82.0
1786369228.1668172,-0.891,4.307,8.404,0.025,-0.022,-0.084,24.3,-5.1,84.3,86.0
1786369228.1668894,-0.876,4.345,8.394,0.034,-0.018,-0.079,24.75,-6.75,82.95,84.0
1786369228.1669579,-0.96,4.439,8.423,0.028,-0.025,-0.068,25.5,-6.75,82.5,84.0
1786369228.3716204,-0.953,4.341,8.598,-0.023,-0.042,-0.01,23.4,-5.4,83.4,83.0
1786369228.371693,-1.068,4.247,8.562,-0.025,-0.061,-0.018,24.0,-5.55,82.5,83.0
1786369228.3717303,-1.087,4.149,8.583,-0.007,-0.07,-0.049,24.0,-5.55,81.0,74.0
1786369228.5770967,-0.644,4.266,8.432,-0.007,0.03,-0.078,22.65,-6.15,82.05,65.0
1786369228.5771441,-0.697,4.322,8.487,0.006,0.01,-0.047,23.4,-5.7,82.05,65.0
1786369228.5771637,-0.711,4.336,8.531,0.017,-0.001,-0.027,24.9,-5.4,83.85,76.0
1786369228.78088,-1.286,4.214,8.507,-0.118,-0.023,-0.044,22.35,-5.7,80.85,73.0
1786369228.7809339,-1.166,4.065,8.442,-0.109,-0.043,-0.051,22.8,-5.1,82.95,73.0
1786369228.7809582,-1.168,3.922,8.399,-0.084,-0.055,-0.052,24.15,-4.5,82.05,51.0
1786369228.9867146,-0.874,4.317,8.6,0.036,-0.054,-0.032,23.4,-5.4,81.3,59.0
1786369228.9867694,-0.874,4.448,8.595,0.031,-0.03,-0.027,23.55,-5.1,82.2,59.0
1786369228.9867928,-0.85,4.499,8.557,0.013,0.001,-0.025,22.05,-5.55,80.4,66.0
1786369229.190581,-0.819,4.101,8.399,-0.047,0.035,0.003,23.25,-5.1,81.45,68.0
1786369229.1906414,-0.915,4.082,8.392,-0.022,0.018,0.016,24.15,-6.45,82.35,68.0
1786369229.1906672,-1.025,4.123,8.468,-0.007,-0.022,0.027,22.8,-5.4,80.85,68.0
1786369229.3959584,-0.843,4.259,8.559,-0.08,0.071,-0.029,23.4,-6.15,80.85,64.0
1786369229.3961859,-0.848,4.199,8.564,-0.087,0.089,-0.035,23.1,-5.7,82.35,64.0
1786369229.3962252,-0.838,4.231,8.396,-0.094,0.107,-0.026,23.1,-5.7,82.65,64.0
1786369229.600283,-1.202,4.518,8.605,0.027,0.031,0.026,23.55,-5.55,81.45,57.0
1786369229.6003473,-1.116,4.623,8.696,-0.008,0.024,0.026,23.4,-5.4,82.05,57.0
1786369229.6003723,-1.015,4.463,8.803,-0.049,0.036,0.026,23.25,-4.8,82.2,57.0
1786369229.8034317,-1.18,3.709,8.416,-0.004,-0.024,-0.039,22.65,-7.2,80.55,50.0
1786369229.8035588,-1.171,3.807,8.499,0.018,-0.065,-0.03,23.1,-7.2,82.35,50.0
1786369230.011287,-1.118,4.005,8.44,-0.06,-0.011,-0.05,23.1,-5.7,82.05,51.0
1786369230.011341,-1.116,3.991,8.37,-0.04,-0.027,-0.052,22.8,-5.55,82.2,51.0
1786369230.0113661,-1.077,4.015,8.408,0.022,-0.034,-0.048,21.0,-5.55,82.95,51.0
1786369230.2146406,-0.982,4.415,8.586,-0.052,0.088,0.018,22.8,-7.05,81.45,60.0
1786369230.2147105,-0.953,4.336,8.61,-0.064,0.097,0.024,23.4,-6.9,81.3,60.0
1786369230.2147377,-1.01,4.271,8.533,-0.068,0.097,0.021,22.65,-6.15,82.05,60.0
1786369230.4203498,-1.259,3.948,8.614,-0.019,0.008,0.026,21.6,-6.15,81.6,50.0
1786369230.4204307,-1.223,3.934,8.626,-0.02,-0.002,0.031,23.85,-5.7,80.55,78.0
1786369230.4204662,-1.233,4.02,8.631,-0.004,0.004,0.029,23.25,-5.85,82.2,78.0
1786369230.6241374,-1.257,3.967,8.55,-0.022,0.03,-0.01,21.3,-7.5,81.75,56.0
1786369230.6241982,-1.238,3.991,8.533,-0.011,0.023,-0.003,22.35,-5.7,80.85,74.0
1786369230.624222,-1.221,4.104,8.557,0.001,0.015,0.014,22.65,-7.2,81.3,74.0
1786369230.8295274,-1.032,4.13,8.607,-0.068,0.076,0.013,23.25,-7.5,83.25,59.0
1786369230.8295786,-1.094,4.063,8.516,-0.059,0.059,0.026,23.85,-6.9,82.05,74.0
1786369230.8295999,-1.07,4.101,8.531,-0.048,0.048,0.049,24.0,-7.05,82.5,74.0
1786369231.0343409,-1.264,4.3,8.605,0.044,0.006,-0.018,22.35,-6.15,81.3,51.0
1786369231.0344,-1.288,4.432,8.622,0.023,0.029,-0.02,21.6,-6.45,81.6,51.0
1786369231.034424,-1.106,4.468,8.583,-0.001,0.074,-0.019,21.9,-8.1,82.05,51.0
1786369231.2465546,-1.312,4.183,8.552,-0.043,-0.027,0.067,24.3,-6.3,83.25,56.0
1786369231.246616,-1.269,4.094,8.55,-0.047,-0.015,0.055,22.65,-6.15,82.35,56.0
1786369231.2466457,-1.358,4.171,8.547,-0.059,0.004,0.041,23.85,-7.65,81.6,56.0
1786369231.4438465,-1.267,3.946,8.648,-0.044,0.001,-0.012,21.75,-6.3,82.5,55.0
1786369231.443896,-1.326,3.862,8.602,-0.041,-0.003,-0.016,23.1,-5.7,82.35,55.0
1786369231.4439168,-1.305,3.821,8.605,-0.032,-0.015,-0.019,21.9,-7.2,82.05,55.0
1786369231.6441226,-1.065,4.123,8.679,0.004,-0.027,-0.023,22.8,-5.55,80.7,78.0
1786369231.6487882,-1.183,4.027,8.588,-0.005,-0.037,-0.009,22.05,-6.75,81.45,78.0
1786369231.6488194,-1.113,3.96,8.425,-0.001,-0.03,-0.003,22.35,-6.15,83.1,78.0
1786369231.8531413,-1.211,4.448,8.468,0.081,0.052,0.043,23.55,-6.75,82.5,60.0
1786369231.8532083,-1.214,4.559,8.547,0.053,0.064,0.022,23.85,-6.15,82.65,60.0
1786369231.8532357,-1.295,4.568,8.602,0.022,0.061,0.021,21.9,-6.15,82.65,60.0
1786369232.057941,-1.106,4.417,8.432,0.051,0.01,0.035,22.65,-5.4,82.65,61.0
1786369232.05799,-1.211,4.348,8.456,0.049,0.007,0.034,23.25,-6.75,81.75,61.0
1786369232.0580106,-1.247,4.379,8.478,0.041,0.005,0.033,24.3,-4.8,83.7,61.0
1786369232.2630162,-1.484,4.257,8.387,-0.023,0.029,-0.002,22.8,-4.35,85.05,63.0
1786369232.2630713,-1.42,4.3,8.396,-0.02,0.031,-0.007,22.65,-6.9,83.1,63.0
1786369232.2630937,-1.384,4.384,8.399,-0.029,0.014,-0.01,24.0,-5.55,83.7,63.0
1786369232.4681458,-1.403,4.3,8.442,-0.097,0.033,0.011,23.55,-5.85,83.25,77.0
1786369232.4682157,-1.434,4.221,8.37,-0.085,0.015,-0.007,23.25,-6.3,82.95,77.0
1786369232.468247,-1.307,4.195,8.313,-0.073,0.01,-0.017,23.55,-4.05,82.95,77.0
1786369232.672054,-1.283,4.365,8.456,0.044,-0.031,0.035,22.65,-7.65,82.05,69.0
1786369232.6721191,-1.267,4.453,8.44,0.04,-0.04,0.04,22.5,-5.1,83.25,69.0
1786369232.6721456,-1.279,4.468,8.478,0.03,-0.026,0.037,21.75,-4.35,82.2,67.0
1786369232.8775158,-1.269,4.295,8.325,0.025,0.083,-0.028,23.4,-4.5,81.3,76.0
1786369232.8775713,-1.279,4.329,8.267,0.027,0.06,-0.028,22.8,-6.3,82.5,76.0
1786369232.8775935,-1.245,4.348,8.375,0.035,0.034,-0.021,22.5,-5.55,82.2,87.0
1786369233.0824096,-1.386,4.676,8.437,-0.017,-0.003,0.019,23.4,-4.95,82.35,112.0
1786369233.0824711,-1.456,4.748,8.437,-0.024,-0.017,-0.005,24.3,-4.05,82.5,112.0
1786369233.0825353,-1.432,4.702,8.485,-0.04,0.001,-0.027,22.5,-4.8,84.0,130.0
1786369233.287039,-1.362,4.046,8.174,-0.046,0.01,-0.076,22.35,-6.15,83.85,93.0
1786369233.28711,-1.334,4.025,8.207,0.005,-0.012,-0.045,22.05,-3.6,84.0,93.0
1786369233.2871385,-1.401,4.087,8.183,0.053,-0.042,-0.021,22.65,-5.4,82.65,93.0
1786369233.4912632,-1.396,4.453,8.159,0.011,0.06,0.006,24.15,-5.7,83.1,88.0
1786369233.4913163,-1.463,4.312,8.107,0.03,0.065,-0.01,23.55,-5.55,84.0,88.0
1786369233.4913383,-1.494,4.314,8.169,0.051,0.026,-0.027,22.5,-5.1,82.95,88.0
1786369233.69612,-1.293,4.525,8.497,0.156,-0.166,-0.061,22.65,-3.0,82.65,107.0
1786369233.6961658,-1.231,4.559,8.365,0.102,-0.116,-0.081,23.55,-2.4,82.5,107.0
1786369233.6961854,-1.252,4.757,8.253,0.074,-0.057,-0.079,22.05,-2.4,81.75,107.0
1786369233.9013557,-1.001,5.248,8.241,-0.072,0.144,0.173,23.25,-2.1,82.5,83.0
1786369233.9014075,-1.044,5.112,8.068,-0.109,0.139,0.201,23.25,-2.1,84.3,83.0
1786369233.901428,-1.173,5.018,8.064,-0.114,0.118,0.218,24.15,-2.7,84.15,83.0
1786369234.1059673,-1.312,5.116,8.241,-0.107,0.065,0.181,24.75,-1.35,83.7,73.0
1786369234.106032,-1.233,5.148,8.205,-0.12,0.144,0.143,23.85,-2.25,83.1,73.0
1786369234.1060584,-1.264,5.047,8.121,-0.125,0.193,0.115,24.45,-2.7,84.15,73.0
1786369234.311348,-1.314,4.606,8.42,0.163,-0.089,-0.046,24.75,-4.05,84.0,74.0
1786369234.3113976,-1.3,4.812,8.392,0.112,-0.079,-0.048,23.85,-2.7,84.15,74.0
1786369234.3114185,-1.341,4.803,8.404,0.065,-0.059,-0.043,24.45,-2.7,86.1,74.0
1786369234.5212986,-1.19,5.028,8.049,-0.089,0.014,-0.029,24.15,-4.5,83.85,79.0
1786369234.521374,-1.101,4.918,7.999,-0.086,0.011,-0.02,23.55,-3.6,84.3,71.0
1786369234.5214057,-1.077,4.891,7.93,-0.076,0.017,-0.02,24.9,-2.7,84.15,71.0
1786369234.7203817,-1.159,4.932,8.205,0.031,0.003,0.01,24.3,-3.15,84.3,78.0
1786369234.720469,-1.164,5.033,8.169,0.012,0.006,0.01,25.5,-2.85,84.75,82.0
1786369234.7205708,-1.207,4.949,8.231,0.005,0.016,0.012,24.75,-2.85,83.25,82.0
1786369234.9252384,-1.247,4.932,8.236,-0.119,0.046,-0.012,24.15,-4.5,83.4,91.0
1786369234.9252925,-1.264,4.829,8.231,-0.113,0.055,-0.008,24.15,-3.75,83.1,76.0
1786369234.9253156,-1.216,4.788,8.169,-0.111,0.06,-0.005,23.55,-2.85,83.7,76.0
1786369235.1303265,-1.295,4.752,8.085,-0.019,-0.013,0.023,23.55,-3.15,84.75,84.0
1786369235.1303847,-1.326,4.769,8.198,-0.018,-0.023,0.021,24.15,-3.75,84.15,72.0
1786369235.130409,-1.262,4.781,8.188,-0.012,-0.017,0.009,23.55,-4.35,85.05,72.0
1786369235.3351834,-1.322,4.774,8.183,-0.002,-0.003,-0.005,23.1,-4.2,82.35,72.0
1786369235.3352385,-1.29,4.76,8.2,-0.004,0.013,-0.011,23.85,-4.2,84.9,72.0
1786369235.3352604,-1.286,4.788,8.26,-0.015,0.016,-0.008,25.5,-3.6,84.75,94.0
1786369235.5395179,-1.247,4.721,8.164,-0.029,-0.003,0.004,23.4,-4.2,82.35,70.0
1786369235.539556,-1.255,4.733,8.176,-0.016,-0.002,0.007,24.15,-4.2,84.9,70.0
1786369235.5395722,-1.243,4.745,8.124,-0.018,-0.011,-0.001,24.45,-4.5,83.85,77.0
1786369235.7413907,-1.164,4.752,8.176,-0.01,0.015,-0.017,23.55,-4.35,84.0,84.0
1786369235.745009,-1.168,4.776,8.155,-0.021,0.011,-0.018,23.25,-4.05,83.25,84.0
1786369235.7450583,-1.161,4.767,8.138,-0.01,0.006,-0.013,23.1,-3.75,84.6,73.0
1786369235.949392,-0.982,4.762,8.188,-0.045,-0.023,-0.016,24.0,-3.6,83.7,73.0
1786369235.9494376,-1.166,4.726,8.286,-0.037,0.034,-0.03,22.35,-3.75,83.4,73.0
1786369235.9494634,-1.264,4.757,8.205,-0.011,0.015,-0.023,23.55,-3.15,83.25,73.0
1786369236.1539133,-1.087,4.717,8.222,-0.027,-0.015,-0.013,24.0,-4.35,82.5,74.0
1786369236.153989,-1.111,4.779,8.128,-0.028,-0.009,-0.007,23.85,-2.25,81.6,74.0
1786369236.1540227,-1.077,4.793,8.205,-0.028,0.006,-0.01,24.3,-3.15,83.7,74.0
1786369236.3594701,-1.211,4.705,8.188,-0.03,0.028,0.001,23.4,-3.75,82.35,79.0
1786369236.3595533,-1.147,4.729,8.179,-0.032,0.015,0.002,23.25,-4.35,83.7,79.0
1786369236.3595755,-1.195,4.743,8.226,-0.034,0.01,0.009,23.25,-5.1,84.0,79.0
1786369236.563815,-1.211,4.683,8.205,-0.013,0.011,0.013,23.85,-5.7,82.65,77.0
1786369236.5638695,-1.202,4.688,8.203,-0.014,-0.001,0.014,24.0,-4.05,83.25,77.0
1786369236.5638933,-1.166,4.738,8.238,-0.018,-0.01,0.021,24.15,-4.5,82.65,77.0
1786369236.769519,-1.204,4.769,8.198,-0.018,0.018,-0.004,23.25,-4.8,84.0,68.0
1786369236.7696009,-1.144,4.702,8.231,-0.017,0.009,-0.003,24.0,-5.1,84.0,68.0
1786369236.7696311,-1.13,4.721,8.236,-0.013,0.006,0.001,23.4,-3.45,84.9,68.0
1786369236.974278,-1.156,4.683,8.243,-0.021,0.008,0.007,22.65,-4.2,83.85,79.0
1786369236.9743314,-1.142,4.666,8.217,-0.011,0.011,-0.004,23.1,-3.75,84.9,79.0
1786369236.9743547,-1.152,4.712,8.128,-0.024,0.003,0.001,24.15,-4.2,83.85,79.0
1786369237.1738498,-1.185,4.717,8.219,-0.01,-0.003,-0.002,23.1,-4.5,83.85,79.0
1786369237.1853495,-1.109,4.7,8.294,-0.014,0.004,-0.005,22.65,-3.75,83.1,79.0
1786369237.185379,-1.137,4.774,8.243,-0.016,0.001,-0.005,24.3,-5.1,82.2,79.0
1786369237.3833473,-1.109,4.729,8.238,-0.01,-0.005,-0.003,23.1,-4.95,83.4,79.0
1786369237.3834064,-1.109,4.733,8.236,-0.009,0.001,-0.002,23.85,-4.5,83.85,67.0
1786369237.3834329,-1.113,4.788,8.224,-0.018,0.005,-0.004,24.0,-4.8,82.95,67.0
1786369237.594877,-1.125,4.688,8.234,-0.023,0.005,0.001,21.15,-5.7,82.65,72.0
1786369237.5949476,-1.097,4.717,8.234,-0.021,0.01,0.006,22.65,-4.2,83.1,72.0
1786369237.5949779,-1.207,4.721,8.195,-0.019,0.011,0.001,22.05,-5.55,83.7,72.0
1786369237.7923243,-1.14,4.75,8.198,-0.036,0.012,-0.008,22.8,-5.55,81.75,79.0
1786369237.7923837,-1.144,4.626,8.174,-0.039,0.013,-0.009,23.25,-4.35,82.95,79.0
1786369237.7924094,-1.135,4.645,8.188,-0.027,0.018,-0.003,22.8,-5.1,84.0,79.0
1786369237.9981704,-1.101,4.69,8.241,0.0,0.016,0.023,22.65,-5.7,83.1,82.0
1786369237.9982448,-1.132,4.712,8.258,-0.012,0.016,0.027,22.65,-4.95,82.35,82.0
1786369237.998274,-1.142,4.719,8.246,0.004,0.021,0.011,24.75,-5.85,83.25,82.0
1786369238.2026057,-1.101,4.638,8.176,-0.066,0.06,-0.02,22.5,-4.35,83.25,82.0
1786369238.2026746,-1.19,4.568,8.109,-0.051,0.035,-0.022,22.5,-4.8,84.3,82.0
1786369238.2027037,-1.152,4.539,8.109,-0.026,0.012,-0.015,21.6,-6.15,83.1,82.0
1786369238.4068515,-1.197,4.839,8.26,0.001,-0.025,0.007,22.65,-4.95,83.85,79.0
1786369238.4069014,-1.195,4.82,8.25,-0.006,0.005,0.002,21.9,-4.2,82.35,79.0
1786369238.4069226,-1.135,4.82,8.243,-0.013,0.02,-0.011,22.8,-5.55,82.2,79.0
1786369238.6119056,-1.18,4.69,8.248,-0.004,0.015,0.01,22.8,-5.85,83.25,77.0
1786369238.6119604,-1.128,4.688,8.217,0.009,-0.003,0.024,23.25,-5.55,82.5,77.0
1786369238.611984,-1.159,4.75,8.217,0.011,-0.007,0.025,23.1,-4.2,82.35,77.0
1786369238.8162615,-1.171,4.695,8.124,0.033,0.026,-0.005,24.3,-4.35,83.7,76.0
1786369238.8163157,-1.065,4.781,8.131,0.046,0.037,-0.012,21.9,-4.5,83.1,76.0
1786369238.816339,-1.144,4.75,8.157,0.044,0.03,-0.009,21.15,-4.95,83.85,76.0
1786369239.0209897,-1.192,4.987,8.2,0.047,0.016,0.021,24.0,-4.35,83.7,84.0
1786369239.021049,-1.228,5.035,8.179,0.042,0.007,0.02,20.85,-3.75,83.1,84.0
1786369239.0210736,-1.197,5.047,8.224,0.024,0.007,0.015,22.8,-4.8,84.75,84.0
1786369239.2275565,-1.104,4.958,8.068,-0.005,0.005,-0.009,23.4,-4.95,82.35,78.0
1786369239.2276077,-1.135,5.045,8.116,-0.009,0.018,-0.02,23.25,-4.35,83.7,77.0
1786369239.2276301,-1.144,5.069,8.109,-0.018,0.012,-0.019,24.75,-4.35,82.5,77.0
1786369239.430738,-1.159,4.994,8.083,-0.02,-0.009,0.006,22.35,-4.95,83.85,80.0
1786369239.4307773,-1.164,5.035,8.042,-0.024,-0.01,0.008,22.8,-2.85,83.7,80.0
1786369239.4307947,-1.128,5.033,8.064,-0.023,-0.001,0.007,22.35,-2.7,82.65,74.0
1786369239.6354554,-1.073,4.937,8.066,-0.032,0.016,0.007,22.8,-4.35,84.0,78.0
1786369239.6355605,-1.094,4.863,8.097,-0.018,0.01,0.005,24.0,-2.4,84.3,78.0
1786369239.635592,-1.08,4.889,8.054,-0.016,-0.003,0.016,22.65,-3.75,83.1,88.0
1786369239.840104,-1.116,4.908,8.124,-0.04,0.017,-0.006,22.8,-3.6,84.3,69.0
1786369239.8401644,-1.106,4.954,8.08,-0.04,0.023,-0.002,24.15,-4.5,83.85,69.0
1786369239.8401895,-1.128,4.887,8.083,-0.029,0.027,-0.009,22.65,-3.75,83.1,82.0
1786369240.0452335,-1.111,4.906,8.138,-0.011,0.014,-0.001,21.0,-3.6,82.95,77.0
1786369240.0453005,-1.18,4.932,8.152,-0.021,0.013,-0.011,23.85,-4.5,83.1,77.0
1786369240.045326,-1.173,4.956,8.083,-0.027,0.01,-0.011,22.05,-4.8,82.95,80.0
1786369240.2503116,-1.152,4.968,8.1,-0.021,-0.002,-0.007,22.8,-2.85,83.25,85.0
1786369240.2503707,-1.056,4.872,8.073,-0.027,0.012,-0.01,22.5,-5.55,83.7,85.0
1786369240.250395,-1.106,4.901,8.112,-0.023,0.018,-0.005,22.65,-4.95,83.85,85.0
1786369240.4547794,-1.144,4.939,8.092,-0.011,0.006,-0.008,23.1,-3.75,83.85,88.0
1786369240.4548528,-1.147,4.937,8.14,-0.018,0.019,-0.01,23.55,-5.1,83.25,88.0
1786369240.4548855,-1.123,4.954,8.135,-0.018,0.018,-0.011,22.5,-4.05,83.7,88.0
1786369240.6599548,-1.18,4.903,8.114,-0.021,0.018,-0.002,24.15,-4.2,83.1,82.0
1786369240.6600213,-1.178,4.934,8.064,-0.023,0.02,-0.004,23.1,-3.75,82.65,82.0
1786369240.6600523,-1.171,4.906,8.14,-0.026,0.013,-0.013,22.8,-4.35,82.2,82.0
1786369240.8644445,-1.202,4.858,8.145,-0.021,0.006,0.003,23.25,-4.35,82.5,81.0
1786369240.8645442,-1.207,4.932,8.152,-0.015,0.015,-0.005,22.65,-4.2,83.1,81.0
1786369240.8645706,-1.18,4.942,8.092,-0.022,0.013,-0.003,24.0,-3.6,84.0,81.0
1786369241.0694628,-1.116,4.877,8.109,-0.022,0.016,0.003,23.4,-3.75,83.4,73.0
1786369241.0695903,-1.13,4.899,8.133,-0.017,0.014,0.005,22.8,-4.8,83.25,73.0
1786369241.0696216,-1.149,4.891,8.073,-0.021,0.012,0.004,24.0,-5.1,84.0,73.0
1786369241.273718,-1.14,4.863,8.054,-0.006,0.019,-0.003,22.8,-4.8,84.3,64.0
1786369241.2737722,-1.176,4.875,8.09,-0.016,0.012,-0.006,23.4,-4.5,83.4,64.0
1786369241.2737956,-1.207,4.956,8.097,-0.015,0.011,-0.012,23.85,-4.5,82.05,64.0
1786369241.6836905,-1.101,4.889,8.124,-0.013,0.005,-0.005,22.65,-4.5,83.4,93.0
1786369241.6837757,-1.144,4.927,8.138,-0.011,0.017,-0.006,22.35,-3.75,83.1,93.0
1786369241.6838138,-1.111,4.932,8.121,-0.016,0.015,0.003,21.6,-3.75,83.4,82.0
1786369241.8882678,-1.116,4.913,8.124,-0.032,0.017,-0.006,21.6,-5.4,82.35,83.0
1786369241.888328,-1.116,4.86,8.131,-0.035,0.026,-0.008,21.15,-4.2,83.4,74.0
1786369241.8883536,-1.159,4.877,8.1,-0.027,0.015,-0.011,23.25,-4.05,82.95,74.0
1786369242.0937684,-1.166,4.903,8.126,-0.022,0.023,0.005,21.9,-3.75,82.65,90.0
1786369242.0938184,-1.183,4.855,8.1,-0.017,0.018,0.006,22.8,-4.5,82.65,74.0
1786369242.09384,-1.173,4.877,8.102,-0.025,0.014,-0.001,22.5,-4.05,82.2,74.0
1786369242.2985566,-1.226,4.884,8.109,-0.027,0.011,0.007,23.4,-4.2,83.85,81.0
1786369242.2986286,-1.152,4.853,8.112,-0.027,0.015,-0.006,22.05,-4.05,82.2,81.0
1786369242.2986562,-1.101,4.903,8.104,-0.023,0.021,-0.007,22.5,-4.8,82.95,85.0
1786369242.5039637,-1.152,4.975,8.171,-0.018,0.0,-0.006,22.8,-4.8,82.5,83.0
1786369242.5040371,-1.199,4.848,8.104,-0.022,0.009,-0.005,22.65,-5.7,83.1,83.0
1786369242.504069,-1.209,4.872,8.133,-0.022,0.008,-0.003,22.65,-4.5,83.1,83.0
1786369242.7075415,-1.101,4.887,8.195,-0.012,0.009,0.001,21.3,-4.35,83.25,79.0
1786369242.7075968,-1.082,4.887,8.104,-0.017,0.008,0.003,22.5,-5.55,82.5,79.0
1786369242.70762,-1.132,5.009,8.157,-0.015,0.009,0.004,23.4,-4.5,82.35,79.0
1786369242.9126244,-1.056,4.92,8.1,-0.014,0.007,-0.007,22.05,-5.55,83.25,85.0
1786369242.9126902,-1.092,4.846,8.1,-0.013,0.005,-0.001,23.55,-4.8,84.3,85.0
1786369242.9127154,-1.099,4.853,8.14,-0.013,-0.001,0.007,21.9,-3.75,83.4,85.0
1786369243.1177926,-1.123,4.882,8.047,-0.012,0.003,0.002,23.1,-3.75,83.1,76.0
1786369243.1178455,-1.159,4.896,8.095,-0.01,0.007,-0.002,22.05,-4.35,82.5,76.0
1786369243.1178658,-1.058,4.908,8.102,-0.014,0.012,-0.004,22.8,-3.6,82.5,76.0
1786369243.3218195,-1.18,4.894,8.08,-0.022,0.005,-0.003,22.5,-4.8,82.95,87.0
1786369243.322002,-1.161,4.896,8.056,-0.023,-0.006,0.003,23.4,-5.4,84.6,87.0
1786369243.3220346,-1.128,4.896,8.078,-0.014,-0.004,0.003,22.35,-4.2,83.85,87.0
1786369243.5346575,-1.188,4.867,8.109,-0.011,0.014,-0.002,23.25,-3.6,84.75,78.0
1786369243.5347364,-1.166,4.949,8.135,-0.019,0.014,-0.002,23.55,-4.35,83.25,78.0
1786369243.534771,-1.128,4.901,8.056,-0.018,0.001,0.006,22.8,-3.15,81.45,78.0
1786369243.7314718,-1.197,4.891,8.114,-0.01,0.008,0.0,21.75,-3.6,81.75,82.0
1786369243.731592,-1.192,4.922,8.073,-0.015,-0.001,0.011,21.15,-3.45,82.65,82.0
1786369243.7316282,-1.18,4.851,8.054,-0.012,-0.002,0.008,22.05,-4.35,83.7,82.0
1786369243.9422843,-1.12,4.934,8.164,-0.032,0.02,-0.014,24.15,-3.45,82.05,76.0
1786369243.942335,-1.044,4.956,8.181,-0.048,0.031,-0.014,22.8,-4.05,83.7,84.0
1786369243.9423585,-1.034,4.949,8.191,-0.059,0.044,-0.012,22.8,-4.35,84.75,84.0
1786369244.1476932,-1.302,4.683,8.174,-0.005,0.064,0.0,21.75,-4.35,83.25,82.0
1786369244.147763,-1.353,4.738,8.212,-0.01,0.042,-0.014,21.9,-4.5,83.4,82.0
1786369244.1477916,-1.561,5.581,7.582,0.083,-0.126,-0.345,23.25,-3.6,84.0,72.0
1786369244.3522084,-1.082,4.688,8.033,-0.003,-0.12,-0.119,21.9,-5.4,83.1,91.0
1786369244.3522449,-1.3,4.657,7.968,0.027,-0.105,-0.127,21.15,-4.95,85.35,91.0
1786369244.35226,-1.281,4.896,7.937,0.071,-0.087,-0.081,21.9,-3.75,81.6,91.0
1786369244.5486271,-1.037,5.195,8.121,-0.027,0.021,0.045,21.75,-4.35,84.0,98.0
1786369244.5487177,-0.989,5.215,8.095,-0.034,0.025,0.063,21.3,-2.85,81.75,98.0
1786369244.5514517,-0.982,5.121,8.056,-0.055,0.039,0.059,21.75,-2.4,81.75,98.0
1786369244.7561948,-1.207,4.879,8.061,-0.012,0.014,0.011,23.25,-3.15,82.5,90.0
1786369244.7562578,-1.226,4.922,8.08,-0.008,0.013,0.015,21.75,-2.85,82.5,90.0
1786369244.7562838,-1.173,4.891,8.114,-0.007,-0.009,0.01,22.05,-4.8,82.95,90.0
1786369244.9631305,-1.106,5.052,8.2,-0.083,0.046,0.025,22.05,-3.6,82.95,98.0
1786369244.9632022,-1.101,5.021,8.112,-0.091,0.059,0.021,21.0,-3.6,82.2,98.0
1786369244.9632347,-1.094,4.875,8.159,-0.094,0.07,0.005,22.05,-4.35,82.95,98.0
1786369245.1651793,-1.302,4.879,8.083,0.023,-0.024,-0.021,21.6,-3.45,83.85,92.0
1786369245.1652567,-1.271,4.992,8.097,0.03,-0.033,-0.026,22.05,-4.05,83.25,92.0
1786369245.1652918,-1.288,4.954,8.169,0.03,-0.045,-0.03,21.75,-4.8,82.2,92.0
1786369245.3731716,-1.037,4.774,8.143,-0.108,0.005,-0.037,21.75,-5.1,81.75,91.0
1786369245.3732479,-1.063,4.724,8.001,-0.101,0.012,-0.036,21.0,-5.55,82.5,91.0
1786369245.3765237,-1.053,4.705,7.994,-0.09,0.007,-0.028,22.35,-4.95,83.4,91.0
1786369245.577118,-1.144,4.839,8.193,-0.027,0.012,-0.003,21.75,-7.05,82.2,86.0
1786369245.577164,-1.101,4.829,8.234,-0.025,0.027,-0.002,20.85,-6.15,81.6,86.0
1786369245.5771832,-1.085,4.817,8.21,-0.029,0.03,0.002,20.55,-5.1,82.95,86.0
1786369245.7905483,-1.233,4.781,8.145,0.007,-0.009,0.001,23.1,-5.7,82.05,92.0
1786369245.7905953,-1.192,4.788,8.176,0.009,-0.01,-0.008,21.0,-5.55,83.25,84.0
1786369245.790615,-1.14,4.865,8.164,0.008,-0.023,-0.009,21.15,-4.2,82.35,84.0
1786369245.9846416,-1.18,4.896,8.112,-0.038,-0.009,0.003,21.0,-4.05,83.7,90.0
1786369245.9847262,-1.056,4.82,8.135,-0.037,-0.014,0.005,22.05,-4.05,82.5,86.0
1786369245.9847555,-1.075,4.8,8.083,-0.024,-0.009,0.013,22.5,-4.35,81.75,86.0
1786369246.1984072,-1.006,4.896,8.358,-0.11,0.086,0.016,21.3,-4.05,82.5,86.0
1786369246.198464,-1.125,4.841,8.308,-0.131,0.094,0.009,21.15,-5.4,80.85,88.0
1786369246.1985211,-1.118,4.76,8.243,-0.125,0.085,0.024,21.0,-4.8,82.2,88.0
1786369246.4006538,-1.408,4.604,8.121,0.012,-0.056,-0.027,22.05,-5.85,83.25,80.0
1786369246.40072,-1.322,4.628,8.169,0.034,-0.076,-0.027,21.75,-5.55,82.5,80.0
1786369246.4007442,-1.31,4.69,8.272,0.043,-0.068,-0.037,21.3,-5.85,82.95,74.0
1786369246.6088185,-1.013,4.889,8.124,-0.031,0.022,-0.009,21.15,-4.95,82.65,80.0
1786369246.6088583,-1.018,4.911,8.167,-0.028,0.031,0.003,21.9,-4.95,82.65,80.0
1786369246.6088755,-1.063,4.875,8.145,-0.025,0.034,0.011,22.5,-4.35,83.25,79.0
1786369246.804762,-1.322,4.638,8.133,0.039,-0.06,0.022,21.0,-5.85,83.25,72.0
1786369246.8048463,-1.274,4.805,8.133,0.036,-0.06,0.009,20.55,-5.1,82.2,72.0
1786369246.8048728,-1.168,4.709,8.265,0.028,0.001,-0.006,21.0,-5.1,82.5,89.0
1786369247.009598,-1.027,4.776,8.183,-0.049,0.038,-0.009,21.0,-5.1,82.2,82.0
1786369247.0096488,-0.96,4.666,8.143,-0.043,0.016,0.016,22.05,-7.05,84.0,82.0
1786369247.0096703,-0.994,4.7,8.116,-0.027,-0.004,0.024,22.05,-5.1,81.45,77.0
1786369247.2186768,-1.197,4.846,8.135,0.036,0.019,-0.013,21.9,-4.5,82.35,86.0
1786369247.218745,-1.197,4.848,8.155,0.04,0.019,-0.011,19.35,-5.4,84.15,86.0
1786369247.4183974,-1.477,4.882,7.898,0.054,0.094,-0.032,22.5,-4.35,83.7,92.0
1786369247.4184597,-1.508,4.882,7.913,0.061,0.062,-0.064,22.35,-4.2,82.65,92.0
1786369247.4185216,-1.542,4.831,7.841,0.087,0.036,-0.071,23.1,-3.45,84.6,92.0
1786369247.6288946,-1.123,5.291,8.114,0.071,-0.032,-0.065,23.55,-2.4,81.45,102.0
1786369247.6289642,-1.14,5.298,8.064,0.052,-0.023,-0.051,21.6,-2.25,81.6,102.0
1786369247.6289918,-1.144,5.327,8.08,0.033,-0.031,-0.052,22.8,-1.35,83.7,102.0
1786369247.8280902,-1.147,5.274,7.858,-0.129,0.059,0.001,22.65,-3.45,83.1,101.0
1786369247.8281546,-1.257,5.049,7.877,-0.107,0.049,0.009,21.6,-3.0,82.65,101.0
1786369247.8281796,-1.216,5.061,7.894,-0.093,0.026,0.006,21.9,-2.7,83.4,101.0
1786369248.0389683,-1.322,5.16,8.104,-0.06,-0.016,-0.005,22.65,-2.7,82.35,105.0
1786369248.039037,-1.288,5.097,8.085,-0.072,0.013,-0.012,22.35,-2.25,83.85,105.0
1786369248.0390637,-1.295,5.107,8.097,-0.075,0.021,-0.017,22.65,-3.45,82.65,105.0
1786369248.2386577,-1.185,4.961,8.021,-0.027,-0.044,0.001,22.05,-3.6,82.95,97.0
1786369248.2387316,-1.18,4.973,8.068,-0.023,-0.049,0.004,21.6,-4.2,82.65,93.0
1786369248.2387614,-1.195,4.985,8.128,-0.023,-0.042,0.003,21.3,-4.35,82.5,93.0
1786369248.4418578,-1.123,4.922,8.109,-0.062,-0.019,0.004,21.0,-3.15,81.0,92.0
1786369248.4418995,-1.094,4.937,8.143,-0.053,-0.001,0.003,22.05,-3.6,81.45,84.0
1786369248.4419236,-1.176,4.944,8.112,-0.05,0.018,0.01,21.9,-3.45,82.05,84.0
1786369248.6526365,-1.18,4.8,8.102,-0.053,0.018,0.028,20.85,-3.0,82.05,92.0
1786369248.6527236,-1.338,4.733,8.092,-0.042,0.02,0.021,21.9,-3.0,82.05,92.0
1786369248.6527731,-1.343,4.642,8.095,-0.033,0.009,0.012,22.05,-5.55,82.5,91.0
1786369248.8516045,-1.065,4.779,8.186,0.049,0.032,0.03,20.85,-3.75,83.4,82.0
1786369248.8516784,-1.073,4.788,8.107,0.056,0.036,0.034,21.15,-3.75,82.35,91.0
1786369248.8517087,-1.168,4.817,8.1,0.06,0.027,0.034,21.0,-5.55,82.95,91.0
1786369249.060509,-1.085,5.212,8.097,-0.056,0.007,-0.026,22.35,-3.0,81.6,104.0
1786369249.0605469,-1.001,5.246,8.047,-0.07,0.011,-0.024,20.85,-3.0,82.05,104.0
1786369249.0605621,-0.898,5.174,8.035,-0.068,0.027,-0.021,21.75,-4.05,82.5,104.0
1786369249.2616339,-0.97,4.985,7.994,-0.065,0.041,0.031,22.5,-2.4,82.2,99.0
1786369249.2616873,-1.073,4.887,8.009,-0.063,0.018,0.047,21.15,-3.75,82.65,99.0
1786369249.261715,-1.032,4.865,8.016,-0.047,0.002,0.053,21.9,-3.75,82.35,99.0
1786369249.4714072,-1.001,4.805,8.083,-0.056,0.015,-0.012,20.55,-3.15,80.7,105.0
1786369249.471515,-1.02,4.851,8.09,-0.052,-0.002,0.004,20.85,-4.5,82.35,105.0
1786369249.4715598,-1.013,4.798,8.114,-0.044,-0.004,0.011,21.3,-5.1,82.2,105.0
1786369249.669001,-1.137,4.853,8.217,-0.051,0.003,0.027,21.0,-4.8,84.0,85.0
1786369249.6723006,-1.142,4.788,8.119,-0.051,0.016,0.018,21.9,-4.5,82.35,85.0
1786369249.8805847,-1.178,4.741,8.152,0.06,-0.01,-0.021,20.85,-4.95,82.05,82.0
1786369249.8809285,-1.18,4.822,8.135,0.057,-0.011,-0.024,21.3,-3.6,82.95,82.0
1786369249.88098,-1.135,4.827,8.186,0.063,0.002,-0.036,21.0,-4.35,82.2,82.0
1786369250.0805585,-1.159,4.812,8.246,0.049,-0.007,-0.023,21.75,-3.6,82.95,82.0
1786369250.0806396,-1.166,4.779,8.198,0.049,0.002,-0.025,20.85,-4.2,81.6,86.0
1786369250.08097,-1.111,4.815,8.171,0.049,0.005,-0.031,22.35,-4.2,82.65,86.0
1786369250.2930827,-0.991,5.001,8.009,0.024,-0.016,-0.045,21.75,-3.6,81.45,94.0
1786369250.2932796,-0.907,5.037,8.028,0.018,0.001,-0.039,21.0,-3.15,83.7,94.0
1786369250.2933135,-0.97,5.095,8.03,-0.003,0.011,-0.028,20.4,-3.0,82.65,103.0
1786369250.490666,-1.111,4.956,7.927,0.015,0.055,0.042,22.65,-3.0,81.6,91.0
1786369250.490738,-1.171,5.013,7.922,0.027,0.047,0.043,21.15,-4.5,82.35,91.0
1786369250.490769,-1.099,5.097,8.001,0.044,0.043,0.046,21.6,-4.5,82.65,91.0
1786369250.6948004,-1.209,4.978,8.088,-0.082,0.049,0.056,20.4,-4.2,82.65,104.0
1786369250.6948664,-1.29,4.903,8.076,-0.088,0.049,0.037,21.15,-4.5,83.1,104.0
1786369250.6949005,-1.262,4.942,8.033,-0.092,0.044,0.019,20.85,-4.95,83.1,102.0
1786369250.899872,-0.754,5.121,7.977,-0.01,-0.077,-0.055,20.55,-4.8,81.75,108.0
1786369250.9000208,-0.795,4.846,8.128,-0.042,0.043,-0.071,20.25,-5.55,82.5,108.0
1786369250.9000583,-1.178,4.992,8.179,0.021,0.077,-0.043,20.55,-5.55,81.75,108.0
1786369251.1146934,-1.111,4.98,7.975,-0.014,-0.006,-0.011,21.3,-4.8,82.2,103.0
1786369251.1147332,-1.068,5.054,8.042,-0.014,-0.002,-0.006,20.85,-5.4,82.35,103.0
1786369251.1147501,-1.087,4.99,7.949,-0.009,-0.002,-0.001,21.3,-5.1,81.45,103.0
1786369251.309827,-1.116,4.999,8.035,-0.031,0.004,0.001,21.15,-4.2,82.35,107.0
1786369251.3098722,-1.065,5.092,8.112,-0.027,0.006,0.006,21.0,-5.85,82.5,107.0
1786369251.3098948,-1.101,5.045,8.095,-0.022,0.006,0.01,19.65,-4.95,82.05,100.0
1786369251.5143783,-1.085,5.107,8.023,-0.034,0.003,0.013,20.25,-5.1,82.2,108.0
1786369251.514473,-1.149,5.047,7.987,-0.028,0.007,0.013,21.0,-4.35,81.75,108.0
1786369251.5145507,-1.092,5.1,8.021,-0.019,0.01,0.012,21.75,-5.1,84.0,108.0
1786369251.7246008,-1.178,5.001,8.114,-0.032,0.001,0.01,20.25,-4.05,82.5,106.0
1786369251.7246578,-1.231,5.009,8.1,-0.045,-0.006,0.005,21.0,-5.55,81.45,106.0
1786369251.724686,-1.156,5.016,8.071,-0.061,-0.007,0.001,21.0,-4.8,82.5,106.0
1786369252.1283574,-1.094,5.035,8.056,0.0,0.017,0.004,19.65,-5.4,82.05,97.0
1786369252.128438,-1.087,5.073,8.009,0.004,0.021,0.009,21.3,-4.8,83.25,97.0
1786369252.1285017,-0.982,5.066,8.025,0.002,0.021,0.003,20.4,-4.95,81.3,97.0
1786369252.3395097,-1.197,4.946,8.114,-0.038,0.011,-0.039,21.9,-4.5,81.6,90.0
1786369252.3395834,-1.18,4.908,8.076,-0.043,0.013,-0.038,21.0,-4.05,82.5,90.0
1786369252.3398063,-1.164,4.781,8.061,-0.038,0.02,-0.03,22.05,-4.35,82.2,90.0
1786369252.5389953,-1.18,4.956,8.073,-0.01,0.002,-0.014,21.0,-4.8,82.2,90.0
1786369252.5390606,-1.19,4.963,8.047,-0.007,0.007,-0.015,22.05,-4.05,81.0,95.0
1786369252.5390942,-1.214,4.939,8.1,-0.001,0.008,-0.013,21.15,-4.2,81.6,95.0
1786369252.742751,-1.18,4.92,8.049,0.013,-0.011,-0.008,19.8,-5.85,81.0,92.0
1786369252.7428231,-1.171,5.006,8.001,0.021,-0.011,-0.006,21.6,-5.7,81.6,100.0
1786369252.7428565,-1.152,5.023,8.018,0.034,-0.004,-0.003,19.8,-4.35,82.95,100.0
1786369252.9533396,-1.073,5.033,8.052,-0.012,0.03,-0.001,21.15,-3.75,82.05,104.0
1786369252.953436,-1.118,4.944,7.989,-0.017,0.015,0.003,21.9,-3.45,80.85,111.0
1786369252.9535134,-1.106,5.009,7.973,-0.01,0.002,0.012,20.25,-4.05,81.75,111.0
1786369253.1618266,-1.161,4.913,7.954,-0.011,0.013,-0.012,21.75,-4.35,82.5,111.0
1786369253.1619148,-1.14,4.978,7.985,0.005,-0.001,-0.008,20.55,-3.15,80.7,98.0
1786369253.161958,-1.171,4.961,8.013,0.009,-0.007,-0.002,21.0,-3.6,82.5,98.0
1786369253.5627418,-1.147,5.042,7.982,0.003,-0.01,0.005,21.6,-3.75,82.05,98.0
1786369253.5628028,-1.053,5.083,8.011,-0.001,-0.009,0.008,22.05,-4.05,82.5,98.0
1786369253.5628312,-1.109,5.071,8.068,-0.005,-0.006,0.005,21.15,-3.75,82.05,98.0
1786369253.9717739,-1.116,5.095,7.906,0.0,0.01,-0.013,21.75,-3.15,82.5,103.0
1786369253.9718544,-1.12,5.191,8.013,0.007,0.009,-0.006,21.15,-3.45,82.35,103.0
1786369253.9718943,-1.032,5.253,7.882,0.006,0.015,-0.003,21.75,-4.8,82.2,103.0
1786369254.3825657,-1.381,4.731,8.09,-0.08,0.038,0.062,21.9,-4.95,82.35,97.0
1786369254.3826509,-1.329,4.671,8.114,-0.071,0.022,0.056,20.85,-4.95,82.65,97.0
1786369254.3826957,-1.47,4.726,8.135,-0.069,-0.001,0.056,20.55,-4.8,80.7,97.0
1786369254.7907557,-0.986,5.32,7.807,0.037,0.053,0.04,21.9,-4.2,83.1,99.0
1786369254.7908099,-1.056,5.315,7.901,0.038,0.049,0.039,21.0,-4.05,81.75,99.0
1786369254.7908368,-1.164,5.284,7.836,0.043,0.044,0.03,21.6,-3.0,82.05,99.0
1786369255.2034435,-1.255,5.107,7.999,-0.063,0.008,0.007,21.0,-3.15,82.5,101.0
1786369255.2035892,-1.204,5.162,7.989,-0.072,0.008,0.006,22.35,-2.7,82.05,101.0
1786369255.2036393,-1.228,5.1,8.011,-0.082,0.009,-0.001,22.05,-3.15,83.7,92.0
1786369255.6112103,-1.188,5.229,7.939,0.023,-0.01,-0.017,21.75,-4.35,82.95,97.0
1786369255.6112547,-1.214,5.246,7.982,0.011,0.001,-0.022,21.15,-4.2,82.05,97.0
1786369255.6112788,-1.111,5.341,8.047,0.002,0.014,-0.012,21.0,-4.05,82.5,96.0
1786369256.026143,-1.384,4.939,8.095,0.029,0.005,-0.049,20.85,-4.5,84.15,110.0
1786369256.0262015,-1.319,4.925,8.135,0.018,-0.006,-0.057,21.15,-4.2,83.4,110.0
1786369256.0262313,-1.262,4.891,8.097,0.014,-0.022,-0.059,20.25,-6.3,83.7,110.0
1786369256.4299114,-1.137,5.255,7.994,-0.05,0.059,0.066,19.5,-4.35,82.95,84.0
1786369256.4300292,-1.209,5.267,7.985,-0.049,0.061,0.059,21.9,-5.4,82.65,84.0
1786369256.4300594,-1.166,5.205,7.994,-0.047,0.074,0.056,24.0,-3.6,82.5,84.0
1786369256.8362823,-1.037,5.272,7.697,-0.11,0.082,-0.032,21.15,-3.45,82.05,99.0
1786369256.8363755,-1.132,5.181,7.638,-0.092,0.06,-0.025,23.4,-1.8,83.4,99.0
1786369256.8396935,-1.135,5.186,7.673,-0.056,0.018,-0.012,23.55,-1.35,83.25,99.0
1786369257.2483542,-1.192,5.2,7.968,-0.031,0.012,0.023,22.5,-3.15,82.95,101.0
1786369257.2484186,-1.267,5.195,7.985,-0.036,0.02,0.024,22.8,-2.4,83.7,101.0
1786369257.248452,-1.216,5.205,7.98,-0.037,0.016,0.014,22.35,-2.7,84.15,97.0
1786369257.6594431,-1.199,5.193,7.927,-0.051,0.018,-0.005,21.3,-2.4,84.0,105.0
1786369257.6595075,-1.267,5.085,7.922,-0.032,0.021,-0.005,22.35,-3.45,82.35,98.0
1786369257.659534,-1.195,5.102,7.901,-0.022,0.02,-0.011,21.75,-3.6,81.75,98.0
1786369258.0676458,-1.008,5.593,7.858,-0.01,0.032,-0.004,22.05,-3.15,81.45,90.0
1786369258.0677307,-0.934,5.464,7.872,-0.017,0.057,0.014,22.5,-1.65,82.95,90.0
1786369258.0677736,-0.982,5.452,7.803,-0.024,0.058,0.027,21.6,-3.0,82.35,89.0
1786369258.4791987,-1.161,5.198,7.891,-0.032,0.0,-0.019,22.05,-2.85,82.5,99.0
1786369258.4792542,-1.118,5.191,7.958,-0.029,-0.01,-0.005,21.3,-4.05,82.5,90.0
1786369258.4792821,-1.13,5.155,7.918,-0.028,-0.001,-0.007,21.3,-3.15,82.95,90.0
1786369258.8868349,-1.137,5.27,7.898,-0.016,0.016,0.006,23.25,-3.15,84.3,94.0
1786369258.8869205,-1.073,5.291,7.925,-0.014,0.021,0.012,21.3,-2.85,82.5,94.0
1786369258.8869636,-1.204,5.241,7.875,-0.023,0.022,0.009,23.1,-3.45,83.4,94.0
1786369259.301165,-1.211,5.205,7.834,-0.045,0.02,0.019,21.6,-4.2,83.4,99.0
1786369259.3012574,-1.271,5.191,7.784,-0.034,0.024,0.019,22.8,-3.15,82.5,84.0
1786369259.3013074,-1.353,5.217,7.824,-0.023,0.019,0.011,22.05,-2.4,84.3,84.0
1786369259.70774,-1.305,5.205,7.882,-0.019,0.011,-0.014,19.8,-5.1,83.25,94.0
1786369259.7077985,-1.24,5.198,7.879,-0.02,0.003,-0.021,24.3,-2.85,84.3,89.0
1786369259.7078276,-1.221,5.148,7.887,-0.026,0.01,-0.014,21.3,-3.6,82.5,89.0
1786369260.1163807,-1.243,5.195,7.867,-0.03,0.021,-0.007,22.35,-2.7,84.15,100.0
1786369260.1164272,-1.247,5.215,7.877,-0.021,0.024,-0.011,23.55,-2.4,83.25,100.0
1786369260.1164517,-1.219,5.133,7.922,-0.016,0.011,-0.01,22.5,-2.1,82.2,100.0
1786369260.5252352,-1.164,5.246,7.973,-0.025,0.008,-0.001,21.6,-2.7,82.35,92.0
1786369260.5252945,-1.176,5.205,7.951,-0.037,0.01,0.001,21.15,-2.7,83.1,92.0
1786369260.5253255,-1.168,5.274,7.934,-0.043,0.02,0.004,22.65,-1.8,81.6,92.0
1786369260.9356759,-1.322,5.167,7.944,-0.023,0.005,0.006,22.35,-3.0,83.4,88.0
1786369260.9357665,-1.317,5.186,7.966,-0.024,0.002,0.008,22.65,-3.45,83.85,88.0
1786369260.9358149,-1.171,5.112,7.985,-0.027,0.004,0.0,21.0,-3.6,82.5,88.0
1786369261.3549852,-1.154,5.145,7.982,-0.005,0.002,-0.004,21.75,-3.6,82.2,94.0
1786369261.3550322,-1.243,5.155,8.006,-0.014,0.016,-0.007,21.9,-2.25,84.15,94.0
1786369261.3551612,-1.214,5.136,7.939,-0.02,0.021,-0.011,22.8,-4.8,83.25,94.0
1786369261.7531998,-1.211,5.133,7.97,-0.016,0.005,0.012,22.35,-3.45,82.65,87.0
1786369261.7532852,-1.199,5.155,7.968,-0.024,-0.002,0.006,22.5,-4.8,82.95,87.0
1786369261.753328,-1.195,5.169,7.963,-0.028,0.005,-0.004,21.75,-3.15,82.2,87.0
1786369261.9796152,-1.233,5.018,7.894,-0.019,0.004,0.003,22.65,-4.2,82.05,88.0
1786369262.1648958,-1.209,5.109,7.97,-0.01,0.004,0.012,22.35,-4.2,83.1,98.0
1786369262.1650026,-1.197,5.15,7.985,-0.017,0.006,0.01,21.0,-3.6,81.45,98.0
1786369262.1650305,-1.274,5.112,7.973,-0.019,0.01,0.006,22.05,-4.8,83.7,98.0
1786369262.3681874,-1.245,5.124,7.937,-0.003,-0.007,-0.003,22.35,-4.2,83.85,78.0
1786369262.3682299,-1.271,5.155,8.001,-0.006,0.005,-0.005,21.75,-2.85,84.0,78.0
1786369262.3682535,-1.276,5.167,7.989,-0.016,0.011,-0.006,22.5,-4.05,82.95,78.0
1786369262.5820673,-1.255,5.088,8.052,-0.019,0.004,-0.01,21.75,-4.8,82.5,76.0
1786369262.5821269,-1.233,5.15,7.985,-0.029,0.001,-0.013,21.6,-5.4,84.15,76.0
1786369262.582157,-1.199,5.116,7.961,-0.031,0.012,-0.019,21.15,-4.5,83.85,76.0
1786369262.7826498,-1.264,5.143,7.934,-0.019,0.006,-0.01,21.75,-4.8,82.95,90.0
1786369262.7827363,-1.264,5.116,7.944,0.001,-0.008,-0.005,22.05,-4.8,82.5,83.0
1786369262.7827795,-1.183,5.114,7.977,-0.005,-0.004,0.002,21.75,-4.05,82.2,83.0
1786369262.9846601,-1.216,5.109,7.977,-0.006,0.01,-0.001,22.35,-4.95,82.35,83.0
1786369262.9847565,-1.247,5.104,7.989,-0.011,0.013,0.002,23.4,-3.45,84.9,81.0
1786369262.9848,-1.243,5.102,7.973,-0.017,0.011,-0.003,21.0,-3.15,82.2,81.0
1786369263.1893752,-1.166,5.162,8.001,-0.009,0.022,-0.007,21.3,-2.85,83.25,89.0
1786369263.1894255,-1.209,5.095,7.963,-0.007,0.022,-0.005,22.65,-4.2,82.35,89.0
1786369263.1894503,-1.264,5.176,7.958,-0.011,-0.007,0.0,22.5,-4.35,84.0,88.0
1786369263.394548,-1.235,5.174,7.966,-0.015,0.0,-0.01,21.0,-4.8,82.95,88.0
1786369263.394613,-1.235,5.191,7.992,-0.021,0.011,-0.007,23.25,-4.35,82.2,94.0
1786369263.394647,-1.214,5.181,7.91,-0.024,0.014,-0.014,21.15,-4.2,82.65,94.0
1786369263.6003144,-1.154,5.167,7.975,-0.036,0.013,0.014,19.65,-4.5,81.3,91.0
1786369263.6003783,-1.214,5.14,7.966,-0.044,0.022,0.01,22.05,-3.15,82.2,91.0
1786369263.6004138,-1.188,5.021,7.994,-0.032,0.006,0.022,21.0,-4.05,82.5,90.0
1786369263.806834,-1.223,5.035,7.987,-0.028,0.02,0.024,21.6,-4.95,83.4,90.0
1786369263.8068888,-1.286,5.104,7.946,-0.03,0.023,0.016,21.9,-3.75,83.4,82.0
1786369263.806918,-1.25,5.162,7.989,-0.037,0.019,0.007,21.0,-4.05,82.2,82.0
1786369264.0068412,-1.185,5.116,7.975,-0.02,0.011,0.01,22.5,-4.8,84.0,98.0
1786369264.0069187,-1.199,5.116,7.997,-0.016,0.012,0.012,21.9,-5.4,83.85,98.0
1786369264.0069568,-1.238,5.133,8.023,-0.022,0.002,0.003,21.75,-4.35,81.45,98.0
1786369264.2136815,-1.238,5.04,7.97,-0.015,0.013,0.004,21.9,-4.95,82.05,98.0
1786369264.2137558,-1.226,5.08,7.987,-0.009,0.013,-0.003,22.8,-4.05,83.7,98.0
1786369264.2137868,-1.18,5.066,7.958,-0.011,0.014,-0.006,22.8,-5.85,83.25,98.0
1786369264.4188666,-1.166,5.018,7.97,-0.013,0.011,-0.005,21.6,-4.95,82.65,98.0
1786369264.4189603,-1.168,5.033,8.035,-0.028,0.018,-0.002,21.75,-4.8,83.25,94.0
1786369264.4190001,-1.111,5.078,7.999,-0.026,0.022,-0.003,22.35,-3.45,83.4,87.0
1786369264.6218312,-1.204,5.128,7.987,-0.024,0.025,0.002,21.15,-5.4,84.15,87.0
1786369264.6218743,-1.202,5.08,7.975,-0.018,0.007,0.0,20.85,-4.2,84.15,87.0
1786369264.6218977,-1.142,5.104,8.03,-0.021,0.003,0.004,21.3,-4.35,83.25,87.0
1786369264.8287306,-1.262,5.095,7.999,-0.01,0.004,0.005,21.0,-5.55,82.5,83.0
1786369264.8288085,-1.197,5.078,7.999,-0.017,0.008,-0.001,22.35,-4.2,83.1,83.0
1786369264.828849,-1.233,5.085,8.049,-0.018,0.008,0.0,21.0,-5.1,83.7,83.0
1786369265.035201,-1.19,5.049,8.009,-0.015,0.007,0.009,21.3,-4.35,82.95,88.0
1786369265.0352693,-1.183,5.083,7.987,-0.012,0.006,0.004,22.65,-3.45,82.65,88.0
1786369265.0353045,-1.178,5.116,8.009,-0.01,0.003,-0.001,21.15,-3.75,83.85,88.0
1786369265.2378638,-1.171,5.076,8.023,-0.023,0.019,-0.004,21.3,-4.8,82.5,87.0
1786369265.237927,-1.144,5.052,8.028,-0.018,0.013,-0.001,22.65,-5.4,82.05,87.0
1786369265.23796,-1.211,5.028,7.982,-0.011,0.006,0.005,21.3,-3.6,83.25,87.0
1786369265.4457808,-1.135,5.071,8.033,-0.024,0.015,-0.007,21.0,-4.35,84.0,86.0
1786369265.6484492,-1.274,5.021,7.961,-0.014,0.007,-0.001,21.3,-3.6,82.5,87.0
1786369265.8510776,-1.305,5.057,8.004,-0.013,0.004,-0.003,20.1,-5.4,83.1,87.0
1786369265.8511696,-1.238,5.071,8.001,-0.003,0.001,-0.013,21.15,-4.5,83.4,93.0
1786369265.8512197,-1.216,5.085,7.997,-0.009,0.006,-0.012,23.1,-4.95,82.05,93.0
1786369266.0590425,-1.192,5.03,8.021,-0.019,0.018,-0.011,20.4,-3.45,83.1,94.0
1786369266.0591266,-1.233,5.107,7.939,-0.024,0.016,-0.01,22.5,-4.05,83.25,81.0
1786369266.0591698,-1.252,5.116,7.973,-0.018,0.012,-0.01,23.1,-4.95,82.35,81.0
1786369266.262327,-1.104,5.057,8.016,-0.013,0.021,-0.004,22.8,-4.35,82.95,81.0
1786369266.4684217,-1.221,5.15,8.001,-0.013,0.01,-0.002,22.35,-3.75,84.15,88.0
1786369266.4687786,-1.255,5.092,8.028,-0.015,0.007,-0.011,22.5,-4.35,83.7,88.0
1786369266.6726966,-1.262,5.037,7.98,-0.01,-0.002,0.006,23.25,-3.6,83.25,93.0
1786369266.6727538,-1.247,5.09,8.006,-0.012,-0.003,-0.002,22.65,-2.7,82.65,93.0
1786369266.6727822,-1.259,5.116,7.994,-0.012,0.003,-0.004,20.25,-5.1,82.95,93.0
1786369266.8760757,-1.144,5.14,7.951,-0.034,0.029,-0.007,22.05,-4.35,83.25,100.0
1786369266.8761306,-1.144,5.049,7.975,-0.032,0.026,0.003,20.4,-4.2,83.1,95.0
1786369266.8761587,-1.178,5.035,7.977,-0.027,0.006,0.034,21.15,-5.4,83.1,95.0
1786369267.0807872,-1.207,5.047,7.992,-0.012,0.014,-0.01,21.6,-4.2,82.65,85.0
1786369267.0808454,-1.159,5.011,8.033,-0.016,0.023,-0.009,21.9,-4.2,83.4,85.0
1786369267.0808768,-1.161,5.037,7.994,-0.011,0.017,-0.004,21.6,-4.95,83.1,85.0
1786369267.2842276,-1.262,5.092,8.018,-0.034,0.021,0.003,21.9,-4.95,83.4,85.0
1786369267.284292,-1.286,5.09,7.973,-0.034,0.016,-0.001,21.15,-3.45,82.35,85.0
1786369267.2843244,-1.262,5.08,7.977,-0.026,0.014,-0.006,21.75,-4.35,83.25,85.0
1786369267.4898396,-1.183,5.121,7.992,-0.022,0.005,0.011,21.9,-4.95,83.1,80.0
1786369267.489893,-1.264,5.066,7.982,-0.022,0.015,-0.001,20.25,-5.1,82.95,80.0
1786369267.4899197,-1.223,5.08,8.025,-0.015,0.015,0.009,21.6,-4.95,82.65,80.0
1786369267.693191,-1.19,5.059,8.088,-0.007,-0.003,0.001,22.65,-5.7,83.1,93.0
1786369267.6932623,-1.14,5.097,8.042,-0.015,0.011,0.0,21.15,-4.2,83.1,93.0
1786369267.6932976,-1.221,5.133,8.083,-0.023,0.014,0.001,22.5,-4.35,82.95,93.0
1786369267.8985202,-1.166,5.054,8.009,-0.022,0.008,0.004,22.5,-4.8,83.25,94.0
1786369267.8985941,-1.18,5.071,7.977,-0.02,0.016,-0.002,21.9,-4.5,83.4,94.0
1786369267.8986297,-1.199,5.037,8.004,-0.021,0.025,-0.005,20.85,-6.9,82.35,94.0
1786369268.1038907,-1.247,5.071,7.973,-0.012,0.005,-0.009,21.15,-3.45,82.65,84.0
1786369268.103967,-1.168,5.061,8.021,-0.006,0.006,-0.006,21.15,-3.45,82.65,84.0
1786369268.103997,-1.211,5.071,7.968,-0.016,0.004,-0.007,22.65,-4.2,84.15,84.0
1786369268.3089213,-1.233,5.066,8.025,-0.02,0.012,-0.002,22.65,-4.2,81.6,84.0
1786369268.3089807,-1.171,5.057,8.021,-0.018,0.011,0.003,22.35,-4.2,82.65,84.0
1786369268.30901,-1.204,5.028,7.958,-0.016,0.005,-0.002,21.6,-4.95,82.65,84.0
1786369268.5187712,-1.214,5.009,8.006,-0.024,0.025,-0.008,23.25,-5.1,81.75,95.0
1786369268.518865,-1.195,5.071,8.001,-0.031,0.015,-0.007,22.65,-4.2,83.4,95.0
1786369268.5189097,-1.245,5.018,7.982,-0.024,0.003,0.001,22.8,-4.8,84.0,95.0
1786369268.7189674,-1.168,5.059,8.023,-0.016,0.015,-0.005,20.85,-4.95,84.15,94.0
1786369268.7190528,-1.144,5.047,7.987,-0.009,0.011,0.001,22.05,-4.35,81.75,94.0
1786369268.7190967,-1.204,5.037,8.013,-0.018,0.002,0.002,21.6,-5.4,82.65,94.0
1786369268.9223325,-1.192,5.124,7.968,-0.018,0.011,-0.014,21.75,-4.35,82.5,73.0
1786369268.9223864,-1.195,5.071,8.037,-0.021,0.019,-0.008,22.8,-5.1,82.5,73.0
1786369268.9224138,-1.192,5.095,7.987,-0.026,0.023,-0.011,22.35,-6.15,83.1,73.0
1786369269.1267605,-1.233,5.097,7.997,-0.014,0.011,-0.01,21.6,-4.95,85.35,81.0
1786369269.1268177,-1.204,5.052,8.009,-0.023,0.013,-0.011,22.35,-3.45,83.1,81.0
1786369269.1268437,-1.223,5.057,7.954,-0.015,0.018,-0.014,21.9,-4.95,82.65,92.0
1786369269.331916,-1.247,5.107,8.023,-0.006,0.007,-0.004,22.35,-4.95,83.4,94.0
1786369269.3319752,-1.178,5.138,8.083,-0.013,0.014,-0.005,20.25,-4.35,82.95,94.0
1786369269.332,-1.252,5.1,8.004,-0.016,0.015,-0.007,21.9,-3.75,83.4,94.0
1786369269.5409887,-1.195,5.078,8.006,-0.012,0.004,-0.001,22.8,-4.8,82.5,92.0
1786369269.5410435,-1.183,5.107,8.009,-0.009,0.001,-0.001,21.6,-3.45,82.65,92.0
1786369269.5410664,-1.211,5.1,8.011,-0.009,-0.004,0.001,22.65,-5.7,83.4,92.0
1786369269.741061,-1.25,5.076,8.025,-0.019,0.004,-0.011,20.55,-4.8,82.95,89.0
1786369269.7411149,-1.25,5.047,7.968,-0.015,0.008,-0.007,20.85,-5.4,83.1,89.0
1786369269.7411356,-1.235,5.143,7.896,-0.011,0.01,-0.019,21.75,-3.15,82.5,89.0
1786369269.94778,-1.274,5.104,7.961,-0.004,0.0,-0.006,21.15,-4.5,82.65,94.0
1786369269.9478152,-1.214,5.126,7.963,0.001,0.002,-0.004,21.0,-3.6,81.75,94.0
1786369269.9478307,-1.185,5.15,8.011,-0.003,0.01,-0.006,20.85,-3.75,83.1,94.0
1786369270.1510248,-1.168,5.025,7.975,-0.015,-0.008,0.01,21.9,-4.5,82.65,87.0
1786369270.1510947,-1.228,5.104,7.973,-0.022,-0.012,0.02,20.4,-4.5,83.1,87.0
1786369270.1511226,-1.219,5.143,8.047,-0.024,-0.013,0.014,20.55,-4.35,82.5,87.0
1786369270.3555534,-1.089,5.073,7.987,-0.035,0.03,0.003,20.55,-5.55,82.95,90.0
1786369270.3556151,-1.113,5.001,7.958,-0.032,0.02,0.007,22.65,-4.5,84.6,90.0
1786369270.3556397,-1.159,5.097,7.973,-0.03,0.009,0.014,22.35,-4.5,82.35,90.0
1786369270.5611446,-1.386,5.119,8.054,-0.025,-0.009,0.006,20.55,-2.85,82.2,95.0
1786369270.5612047,-1.29,5.071,7.989,-0.031,0.006,-0.014,21.15,-3.75,82.05,95.0
1786369270.5612311,-1.18,5.047,7.939,-0.025,0.03,-0.018,21.15,-3.45,84.6,95.0
1786369270.7661939,-1.243,5.069,7.975,-0.027,0.026,-0.013,21.9,-3.45,82.65,93.0
1786369270.7662635,-1.19,5.08,7.922,-0.016,0.01,0.005,22.8,-5.85,82.95,93.0
1786369270.976,-1.353,5.083,7.973,-0.028,0.011,0.011,22.5,-4.05,84.0,86.0
1786369270.976043,-1.264,5.133,7.961,-0.023,0.004,0.001,22.05,-6.3,83.25,86.0
1786369271.1752124,-1.269,5.124,7.942,-0.032,0.006,-0.002,22.8,-5.55,84.3,86.0
1786369271.1752625,-1.259,5.133,7.992,-0.035,0.006,-0.012,21.3,-4.05,82.5,79.0
1786369271.1752837,-1.166,5.152,7.999,-0.029,0.013,-0.015,21.75,-5.1,83.25,79.0
1786369271.3806162,-1.219,5.215,7.994,0.038,-0.03,-0.007,20.85,-5.4,82.65,88.0
1786369271.3806777,-1.257,5.246,7.997,0.027,-0.013,-0.026,22.5,-5.1,83.25,88.0
1786369271.3807042,-1.35,5.164,8.001,0.03,-0.006,-0.032,21.75,-4.05,83.25,88.0
1786369271.5848389,-1.29,5.148,7.884,0.012,-0.045,-0.034,22.35,-4.95,83.1,94.0
1786369271.5848987,-1.348,5.227,7.86,0.016,-0.087,-0.046,22.65,-3.75,82.65,94.0
1786369271.5849245,-1.302,5.195,7.863,0.019,-0.098,-0.068,21.0,-4.8,84.0,94.0
1786369271.789577,-0.912,5.564,7.903,0.011,0.064,-0.051,21.3,-2.85,83.25,94.0
1786369271.789632,-0.898,5.605,7.922,-0.001,0.056,-0.034,20.55,-2.85,83.25,94.0
1786369271.7896554,-0.876,5.638,7.997,-0.023,0.04,-0.013,20.4,-2.7,82.35,94.0
1786369271.994538,-1.396,5.136,7.743,-0.16,0.091,-0.005,21.9,-4.5,83.4,95.0
1786369271.9945858,-1.353,4.982,7.717,-0.128,0.088,-0.028,21.15,-4.2,83.1,95.0
1786369271.9946053,-1.293,4.803,7.757,-0.03,0.063,-0.053,21.6,-3.75,83.1,95.0
1786369272.1992614,-1.164,5.298,8.384,-0.035,0.015,-0.009,21.0,-5.1,82.2,89.0
1786369272.1993303,-1.065,5.315,8.351,-0.086,0.084,-0.022,22.05,-4.8,83.25,89.0
1786369272.1993592,-1.214,5.32,8.181,-0.13,0.129,-0.028,19.5,-5.1,83.7,89.0
1786369272.403632,-1.257,4.899,7.908,0.115,-0.094,-0.086,22.05,-4.8,84.0,95.0
1786369272.403705,-1.281,4.939,7.999,0.124,-0.079,-0.09,23.1,-4.5,84.15,95.0
1786369272.4037344,-1.322,4.944,8.03,0.126,-0.065,-0.103,20.4,-3.45,84.15,95.0
1786369272.6090553,-1.302,5.444,8.03,0.046,-0.007,-0.142,22.05,-3.15,81.45,94.0
1786369272.609101,-1.403,5.509,7.939,0.019,0.012,-0.144,22.65,-2.25,82.35,94.0
1786369272.6091206,-1.25,5.411,7.944,-0.003,0.007,-0.131,22.65,-3.45,81.3,94.0
1786369272.8129632,-1.343,5.279,7.798,0.025,0.024,0.036,22.5,-0.9,82.5,99.0
1786369272.8130176,-1.3,5.318,7.719,0.022,0.031,0.044,22.8,-1.35,81.0,99.0
1786369272.8130388,-1.372,5.294,7.791,0.023,0.02,0.048,21.9,-1.05,82.35,99.0
1786369273.0188398,-1.391,5.282,7.891,-0.088,0.009,-0.007,21.9,-0.75,82.05,91.0
1786369273.0189154,-1.377,5.38,7.913,-0.098,-0.01,0.005,21.9,-1.8,81.6,91.0
1786369273.0189471,-1.312,5.385,7.884,-0.106,-0.019,0.01,21.9,-1.8,81.6,91.0
1786369273.2231176,-1.116,5.121,7.803,-0.131,0.094,0.068,22.8,-1.65,82.2,98.0
1786369273.2231653,-1.113,5.102,7.738,-0.103,0.102,0.092,23.1,-0.3,82.65,98.0
1786369273.2231848,-1.243,5.08,7.827,-0.08,0.098,0.11,22.05,-2.4,82.95,100.0
1786369273.4280362,-1.709,4.767,7.963,-0.013,-0.016,0.019,21.15,-3.75,83.1,108.0
1786369273.4280865,-1.721,4.779,7.908,0.011,-0.032,0.01,22.05,-3.6,84.3,90.0
1786369273.4281077,-1.702,4.836,7.985,0.02,-0.047,-0.008,22.35,-3.45,82.05,90.0
1786369273.6323452,-1.123,4.942,7.812,-0.026,-0.041,-0.042,21.15,-2.25,81.6,81.0
1786369273.6324203,-1.142,4.987,7.793,0.03,-0.032,-0.004,21.9,-2.25,82.05,81.0
1786369273.632453,-1.324,5.025,7.8,0.064,-0.047,0.013,23.25,-3.6,82.95,81.0
1786369273.837128,-1.441,5.413,7.958,0.012,-0.015,0.008,21.3,-3.15,82.95,94.0
1786369273.8371985,-1.322,5.413,7.949,-0.007,-0.023,0.029,20.55,-1.35,82.5,94.0
1786369273.8372276,-1.202,5.471,7.956,-0.04,0.004,0.037,22.35,-1.5,80.85,94.0
1786369274.0479696,-1.441,4.899,7.843,-0.07,0.009,0.002,22.35,-3.75,81.6,86.0
1786369274.0480375,-1.441,4.889,7.774,-0.045,-0.028,-0.003,21.9,-3.45,83.85,86.0
1786369274.048065,-1.513,4.779,7.812,-0.015,-0.057,-0.013,20.55,-3.6,82.95,86.0
1786369274.2527747,-1.307,5.389,8.023,0.01,0.026,-0.049,22.05,-2.85,80.7,98.0
1786369274.2528608,-1.207,5.284,8.047,-0.014,0.045,-0.063,23.1,-3.45,81.6,98.0
1786369274.2528908,-1.173,5.188,7.961,-0.026,0.061,-0.067,21.0,-2.4,82.5,98.0
1786369274.4516473,-1.501,5.045,7.956,0.1,-0.031,0.009,22.8,-4.35,81.75,96.0
1786369274.4517212,-1.63,5.188,8.037,0.083,-0.042,-0.002,22.05,-4.35,81.45,96.0
1786369274.4517515,-1.702,5.171,8.04,0.067,-0.049,-0.021,21.15,-1.05,81.3,96.0
1786369274.6568735,-1.204,5.401,7.798,-0.027,-0.014,-0.023,21.15,-1.5,82.05,98.0
1786369274.6569228,-1.281,5.478,7.879,-0.047,-0.011,-0.014,21.15,-0.75,81.6,98.0
1786369274.6569438,-1.235,5.507,7.819,-0.063,0.011,-0.006,21.75,-1.35,81.75,98.0
1786369274.8612416,-1.264,5.693,7.839,-0.011,0.069,0.131,22.8,-0.9,81.75,99.0
1786369274.861302,-1.235,5.593,7.973,-0.023,0.098,0.107,22.65,-3.0,84.15,99.0
1786369274.861327,-1.185,5.361,8.025,-0.042,0.142,0.081,20.85,-3.0,83.1,99.0
1786369275.0660753,-1.621,4.877,7.853,-0.028,-0.037,-0.042,21.6,-3.75,82.35,103.0
1786369275.066145,-1.607,4.875,7.872,-0.009,-0.047,-0.031,21.15,-3.0,81.3,103.0
1786369275.0661752,-1.563,5.033,7.805,0.006,-0.03,-0.037,21.9,-2.7,82.65,103.0
1786369275.270907,-1.279,4.891,7.657,-0.103,-0.025,-0.024,22.05,-2.1,81.0,98.0
1786369275.2709744,-1.341,4.944,7.618,-0.039,-0.017,-0.037,22.65,-1.05,82.65,99.0
1786369275.2710025,-1.448,4.906,7.654,-0.005,-0.023,-0.042,22.05,-2.4,81.75,99.0
1786369275.4771898,-1.243,5.411,7.87,0.085,0.034,0.027,20.85,-1.8,82.35,109.0
1786369275.4772396,-1.281,5.435,8.018,0.062,0.039,0.039,21.6,-4.2,83.1,109.0
1786369275.4772606,-1.369,5.476,8.076,0.059,0.031,0.051,21.9,-0.75,82.35,94.0
1786369275.8850837,-1.293,5.083,8.061,0.005,-0.048,-0.02,21.75,-2.4,81.0,113.0
1786369275.8851564,-1.259,5.164,8.004,-0.005,-0.044,-0.016,22.65,-2.25,81.6,113.0
1786369275.8851893,-1.209,5.104,8.004,-0.02,-0.04,-0.002,22.5,-2.4,82.5,115.0
1786369276.0905879,-1.31,5.234,7.982,-0.03,-0.035,-0.006,22.5,-3.15,82.5,115.0
1786369276.0906382,-1.281,5.224,8.03,-0.044,-0.019,-0.004,20.85,-1.5,82.65,115.0
1786369276.0906596,-1.413,5.373,7.925,-0.047,0.005,-0.002,22.35,-2.7,81.3,115.0
1786369276.296056,-1.484,4.911,8.059,0.022,0.043,0.024,22.35,-3.0,82.35,105.0
1786369276.2961133,-1.609,4.944,8.09,0.012,0.028,0.004,22.65,-2.7,83.1,105.0
1786369276.2961402,-1.58,4.865,7.999,0.01,0.005,-0.016,19.35,-3.0,82.65,104.0
1786369276.500701,-1.259,5.413,8.1,-0.093,0.026,-0.041,22.05,-4.35,81.75,101.0
1786369276.5007765,-1.14,5.289,7.87,-0.106,0.109,-0.034,21.3,-3.15,82.2,101.0
1786369276.5008082,-1.192,5.131,7.736,-0.11,0.14,-0.027,22.05,-4.05,83.25,101.0
1786369276.7043016,-1.238,5.066,7.791,0.054,0.016,0.024,20.85,-3.75,82.65,98.0
1786369276.7043788,-1.355,5.006,7.843,0.066,-0.001,0.043,21.6,-3.75,82.35,98.0
1786369276.7044091,-1.472,4.97,7.855,0.076,-0.009,0.047,22.65,-3.45,82.05,98.0
1786369276.9076383,-1.463,5.013,7.805,0.042,-0.02,0.032,22.8,-3.15,83.25,104.0
1786369276.911725,-1.415,5.112,7.949,0.055,-0.043,0.03,20.85,-1.05,82.65,104.0
1786369276.9117794,-1.391,5.171,7.932,0.044,-0.018,-0.004,21.6,-3.75,83.1,104.0
1786369277.113815,-1.391,5.483,7.793,-0.022,0.034,0.014,22.05,-2.1,82.5,97.0
1786369277.1138537,-1.408,5.449,7.877,-0.032,0.016,0.019,21.9,-3.0,82.65,97.0
1786369277.1138706,-1.413,5.449,7.858,-0.028,0.017,0.025,21.75,-2.1,81.75,97.0
1786369277.318879,-1.243,5.38,7.769,-0.059,0.053,0.01,21.15,-3.45,82.05,99.0
1786369277.318972,-1.199,5.236,7.74,-0.056,0.098,0.014,21.0,-2.4,82.95,99.0
1786369277.319021,-1.19,5.193,7.688,-0.043,0.09,0.028,21.75,-3.6,83.25,99.0
1786369277.5246768,-1.46,4.99,8.078,0.007,0.048,0.033,21.3,-3.6,83.25,94.0
1786369277.5247254,-1.575,5.047,8.114,-0.006,0.006,0.033,22.8,-3.6,82.2,95.0
1786369277.5247462,-1.468,5.013,8.071,-0.02,-0.028,0.042,22.5,-2.4,83.25,95.0
1786369277.72946,-1.437,5.114,7.743,-0.092,0.04,-0.06,22.65,-4.5,83.4,94.0
1786369277.7295854,-1.331,5.126,7.709,-0.07,0.034,-0.06,22.5,-2.85,82.95,104.0
1786369277.729618,-1.343,5.16,7.719,-0.053,0.025,-0.057,22.5,-3.15,83.25,104.0
1786369277.936634,-1.463,5.054,7.891,0.009,-0.051,-0.034,23.4,-2.7,82.05,98.0
1786369277.936704,-1.559,5.042,7.925,0.019,-0.073,-0.054,21.15,-3.75,83.1,110.0
1786369277.9367332,-1.575,5.025,7.872,0.026,-0.071,-0.048,21.9,-3.75,83.1,110.0
1786369278.1379435,-1.202,5.339,8.068,-0.04,0.05,0.025,21.75,-3.15,83.25,90.0
1786369278.1379938,-1.085,5.437,7.999,-0.062,0.063,0.042,21.6,-2.25,82.05,110.0
1786369278.138015,-1.063,5.387,7.985,-0.083,0.073,0.062,21.0,-2.4,82.95,110.0
1786369278.3432193,-1.369,5.021,7.908,-0.046,0.028,0.074,21.15,-4.2,83.85,109.0
1786369278.3432753,-1.458,5.066,7.946,-0.031,0.021,0.065,22.35,-3.45,83.4,109.0
1786369278.3432982,-1.561,5.045,7.958,-0.031,0.014,0.048,21.0,-4.05,83.7,95.0
1786369278.5480297,-1.314,4.949,8.085,-0.053,-0.03,-0.064,22.05,-3.15,83.25,110.0
1786369278.5480852,-1.267,4.954,8.045,-0.055,-0.045,-0.054,21.3,-4.05,81.0,110.0
1786369278.5481083,-1.257,4.98,8.001,-0.056,-0.052,-0.046,21.0,-2.85,82.95,110.0
1786369278.7523205,-1.137,5.071,7.776,-0.047,0.043,0.016,20.1,-3.75,82.35,98.0
1786369278.7523925,-1.149,5.052,7.805,-0.026,0.049,0.036,21.15,-3.0,82.65,98.0
1786369278.752422,-1.173,5.061,7.867,-0.009,0.057,0.043,21.9,-4.5,82.35,98.0
1786369278.9572384,-1.544,4.834,8.157,0.048,-0.063,-0.014,22.35,-3.75,83.1,101.0
1786369278.9572892,-1.566,4.899,8.133,0.054,-0.054,-0.026,21.75,-5.55,82.5,101.0
1786369278.9573097,-1.52,4.973,8.133,0.048,-0.044,-0.025,21.0,-4.35,83.25,101.0
1786369279.1622434,-1.25,5.049,7.982,-0.037,0.026,-0.04,21.15,-3.45,82.65,111.0
1786369279.1623094,-1.302,4.966,7.879,-0.019,0.015,-0.036,21.9,-4.2,82.05,111.0
1786369279.162344,-1.245,5.109,7.836,-0.014,0.004,-0.027,21.3,-3.15,82.95,111.0
1786369279.3677533,-1.358,5.231,7.839,0.098,-0.021,0.042,20.25,-2.85,80.7,102.0
1786369279.3678129,-1.353,5.353,7.925,0.088,-0.014,0.049,21.3,-2.4,83.7,98.0
1786369279.3678372,-1.343,5.344,7.966,0.072,-0.001,0.052,20.55,-2.1,81.0,98.0
1786369279.5715337,-1.425,5.023,8.004,-0.021,0.002,0.023,20.55,-3.15,82.5,106.0
1786369279.571605,-1.417,5.076,7.977,-0.028,-0.014,0.026,21.3,-3.6,83.25,106.0
1786369279.5716314,-1.437,5.112,8.056,-0.03,-0.032,0.028,22.5,-3.15,81.75,106.0
1786369279.7765622,-1.25,5.152,7.887,-0.128,0.021,0.011,21.9,-3.45,82.35,94.0
1786369279.7766173,-1.243,5.145,7.8,-0.118,0.016,0.017,21.9,-4.2,83.85,103.0
1786369279.7766423,-1.24,5.133,7.76,-0.1,0.034,0.037,21.75,-4.05,80.7,103.0
1786369279.9811187,-1.259,5.176,7.989,0.034,0.046,0.092,22.35,-4.2,82.65,88.0
1786369279.9811854,-1.24,5.109,8.097,0.016,0.069,0.079,21.75,-3.6,84.3,85.0
1786369279.981213,-1.31,5.267,8.102,0.001,0.067,0.068,21.3,-3.6,81.75,85.0
1786369280.184847,-1.437,4.712,7.934,-0.04,-0.052,-0.093,22.8,-4.35,84.3,90.0
1786369280.1849177,-1.346,4.803,7.934,-0.015,-0.066,-0.069,21.9,-3.75,82.35,90.0
1786369280.1849484,-1.401,4.877,7.937,-0.019,-0.068,-0.055,21.6,-4.95,84.6,83.0
1786369280.3972585,-1.384,4.913,7.87,-0.036,0.021,-0.013,21.3,-4.35,83.7,94.0
1786369280.3973172,-1.226,4.791,7.853,0.004,0.008,-0.017,20.85,-4.2,83.85,94.0
1786369280.3973486,-1.271,4.858,7.839,0.023,-0.013,-0.012,22.5,-4.05,83.7,94.0
1786369280.5960374,-1.472,5.069,7.92,0.134,-0.074,-0.023,21.75,-3.6,82.95,106.0
1786369280.596093,-1.492,5.126,8.013,0.128,-0.088,-0.024,21.0,-3.15,82.2,106.0
1786369280.5961175,-1.458,5.21,8.085,0.114,-0.085,-0.04,22.65,-3.0,83.4,106.0
1786369280.8004498,-1.144,5.327,7.894,-0.045,0.015,0.026,21.15,-1.8,80.55,97.0
1786369280.800561,-1.077,5.382,7.903,-0.056,0.021,0.038,21.6,-3.45,82.35,97.0
1786369280.8005917,-1.135,5.329,7.875,-0.057,0.037,0.049,21.6,-1.5,83.4,97.0
1786369281.0065362,-1.393,5.03,7.819,0.032,-0.034,0.027,21.6,-3.0,82.05,104.0
1786369281.0065846,-1.377,5.037,7.863,0.052,-0.054,0.015,20.55,-3.15,81.75,104.0
1786369281.0066059,-1.393,5.191,7.997,0.061,-0.047,0.002,20.55,-3.6,82.5,104.0
1786369281.2103426,-1.183,5.361,7.664,-0.051,0.081,-0.024,22.05,-2.85,82.5,97.0
1786369281.2103968,-1.18,5.239,7.621,-0.047,0.068,-0.021,21.3,-1.65,83.25,97.0
1786369281.210419,-1.216,5.107,7.623,-0.035,0.068,-0.008,21.0,-1.65,81.45,97.0
1786369281.4151099,-1.161,5.071,7.592,0.026,0.046,0.049,22.5,-2.85,82.95,91.0
1786369281.4151614,-1.204,5.274,7.681,0.066,0.036,0.098,21.75,-2.4,81.45,91.0
1786369281.415183,-1.204,5.452,7.812,0.095,0.02,0.168,21.9,-4.2,82.05,91.0
1786369281.6196063,-1.504,4.7,7.685,-0.08,0.013,0.064,21.15,-6.45,82.35,75.0
1786369281.6196804,-1.504,4.657,7.839,-0.036,-0.008,0.052,21.9,-6.45,84.6,75.0
1786369281.6197114,-1.544,4.752,7.939,-0.008,-0.033,0.034,21.75,-8.25,83.25,75.0
1786369281.8246272,-1.295,4.98,7.958,-0.021,-0.027,-0.042,21.9,-7.2,84.6,93.0
1786369281.8247044,-1.276,4.99,7.985,-0.028,-0.03,-0.042,19.8,-7.5,84.3,93.0
1786369281.8247294,-1.31,5.025,8.023,-0.036,-0.009,-0.035,21.6,-6.15,83.85,92.0
1786369282.029269,-1.07,4.858,7.918,-0.041,0.001,0.031,22.05,-7.8,85.8,90.0
1786369282.029316,-1.161,4.968,7.963,-0.013,0.003,0.051,21.75,-7.8,85.05,79.0
1786369282.0293355,-1.238,4.994,7.982,0.014,0.02,0.06,22.35,-6.15,83.85,79.0
1786369282.2343469,-1.322,4.82,8.152,-0.03,0.023,-0.034,19.8,-7.8,83.7,86.0
1786369282.2344167,-1.269,4.879,8.04,-0.044,-0.001,-0.03,21.6,-7.2,82.65,86.0
1786369282.234449,-1.192,4.781,8.066,-0.032,0.004,-0.027,20.4,-8.1,84.6,91.0
1786369282.4387193,-1.415,5.102,8.305,0.036,-0.063,-0.029,21.3,-6.3,83.25,85.0
1786369282.4387648,-1.348,5.167,8.224,-0.013,-0.056,-0.034,21.15,-6.15,82.05,89.0
1786369282.438783,-1.283,5.097,8.212,-0.051,-0.034,-0.034,20.55,-7.8,83.25,89.0
1786369282.6441836,-0.974,4.973,8.035,-0.128,0.083,-0.016,22.05,-6.75,84.0,86.0
1786369282.644244,-0.972,4.906,8.006,-0.117,0.092,-0.012,21.15,-7.65,85.35,86.0
1786369282.644269,-1.061,4.714,7.992,-0.098,0.097,0.002,22.5,-6.75,84.0,81.0
1786369282.849313,-1.767,4.784,8.258,0.1,-0.087,-0.003,19.5,-6.3,82.95,83.0
1786369282.8493657,-1.666,4.815,8.344,0.085,-0.088,-0.024,21.0,-8.25,85.05,83.0
1786369282.8493888,-1.645,4.992,8.337,0.07,-0.072,-0.043,20.1,-7.65,84.6,96.0
1786369283.0536258,-1.003,4.997,7.884,-0.088,0.064,0.011,21.75,-7.5,83.25,94.0
1786369283.0538309,-0.893,5.001,7.872,-0.077,0.077,0.021,21.15,-6.45,83.1,94.0
1786369283.0538557,-0.922,4.858,7.982,-0.059,0.094,0.047,21.9,-6.45,82.65,87.0
1786369283.2580087,-1.666,4.673,8.282,0.009,0.012,-0.021,21.9,-6.45,84.6,87.0
1786369283.2580516,-1.839,4.7,8.203,0.002,-0.026,-0.037,22.8,-7.5,84.0,87.0
1786369283.2580693,-1.815,4.597,8.112,0.006,-0.097,-0.063,21.3,-8.25,84.75,87.0
1786369283.4634058,-0.919,5.236,8.085,0.023,0.002,0.039,21.9,-5.4,84.15,105.0
1786369283.4634593,-0.943,5.325,8.14,0.001,-0.009,0.095,20.4,-6.45,83.1,105.0
1786369283.4635174,-0.857,5.353,8.066,-0.013,-0.009,0.127,21.75,-4.8,82.5,105.0
1786369283.6685662,-1.274,4.903,7.889,-0.114,0.15,0.094,20.4,-6.45,83.1,84.0
1786369283.6686475,-1.3,4.784,7.882,-0.076,0.136,0.073,22.8,-6.75,82.95,84.0
1786369283.6686811,-1.377,4.738,7.906,-0.05,0.087,0.077,21.0,-5.85,84.75,84.0
1786369283.8725605,-1.563,4.796,8.193,0.027,-0.057,-0.015,20.4,-7.65,82.65,85.0
1786369283.8726144,-1.528,4.834,8.279,0.002,-0.048,-0.038,21.15,-7.65,84.6,85.0
1786369283.872637,-1.499,4.915,8.286,-0.012,-0.036,-0.038,22.05,-5.1,84.75,85.0
1786369284.0770266,-0.984,5.028,7.946,-0.07,0.044,0.037,22.05,-7.05,83.7,89.0
1786369284.0770643,-1.025,5.023,7.875,-0.073,0.053,0.062,22.35,-5.7,83.1,89.0
1786369284.07708,-1.022,5.018,7.946,-0.059,0.053,0.079,21.0,-7.05,83.25,89.0
1786369284.2824042,-1.336,4.985,8.186,-0.027,0.052,0.055,21.0,-8.7,85.05,86.0
1786369284.2825162,-1.403,5.023,8.212,-0.049,0.054,0.047,23.1,-7.65,83.85,86.0
1786369284.2825608,-1.372,4.994,8.258,-0.06,0.062,0.032,19.8,-7.5,84.0,86.0
1786369284.4869251,-1.336,4.477,8.097,-0.115,0.061,-0.047,21.6,-9.15,83.4,93.0
1786369284.4870062,-1.403,4.403,8.119,-0.097,0.051,-0.059,21.0,-8.7,83.7,80.0
1786369284.4870498,-1.393,4.35,8.076,-0.063,0.029,-0.055,22.05,-9.0,84.3,80.0
1786369284.6921816,-1.348,4.827,8.207,0.022,-0.058,-0.069,21.0,-7.5,84.0,81.0
1786369284.692234,-1.353,4.889,8.238,0.01,-0.043,-0.065,20.4,-9.6,83.1,77.0
1786369284.6922586,-1.279,4.834,8.253,-0.008,-0.032,-0.061,20.55,-7.8,82.5,77.0
1786369284.898154,-1.147,4.944,8.025,-0.027,0.021,0.009,20.55,-7.5,84.3,85.0
1786369284.8982205,-1.159,4.872,8.076,-0.023,0.025,0.013,19.35,-8.1,84.15,85.0
1786369284.898246,-1.202,4.812,8.061,-0.016,0.038,0.013,20.55,-7.5,84.0,83.0
1786369285.1018353,-1.267,4.906,8.246,-0.026,0.037,-0.004,21.0,-6.75,84.0,82.0
1786369285.101894,-1.305,4.839,8.253,-0.045,0.034,-0.007,21.0,-7.05,85.05,82.0
1786369285.1019192,-1.274,4.781,8.181,-0.048,0.03,0.0,21.6,-8.4,85.35,82.0
1786369285.3056214,-1.25,4.815,8.068,-0.04,0.046,0.011,22.8,-7.8,85.05,82.0
1786369285.3056767,-1.381,4.719,8.004,-0.022,0.038,0.007,21.75,-8.7,85.8,82.0
1786369285.5113351,-1.302,4.927,8.279,-0.006,0.004,-0.03,21.15,-8.4,83.1,73.0
1786369285.5113866,-1.322,4.848,8.246,-0.022,0.035,-0.037,22.65,-6.45,83.85,73.0
1786369285.511408,-1.25,4.82,8.191,-0.034,0.045,-0.038,21.75,-9.0,84.75,73.0
1786369285.7156649,-1.358,4.982,8.147,-0.022,-0.015,0.018,22.35,-6.9,83.85,86.0
1786369285.71574,-1.319,5.016,8.147,-0.018,0.01,0.002,21.3,-6.75,81.75,86.0
1786369285.7157717,-1.367,4.944,8.164,-0.035,0.046,-0.017,20.55,-9.0,84.0,86.0
1786369285.9204,-1.286,4.669,8.056,-0.023,-0.009,0.051,21.75,-7.05,83.7,89.0
1786369285.9204545,-1.326,4.664,8.066,-0.018,-0.024,0.06,21.3,-7.05,84.0,89.0
1786369285.920501,-1.341,4.685,8.131,0.003,-0.027,0.063,20.85,-7.65,84.15,89.0
1786369286.1260529,-1.269,4.863,8.349,-0.094,-0.007,-0.049,20.4,-7.2,83.4,81.0
1786369286.1261067,-1.338,4.887,8.236,-0.12,0.023,-0.057,20.1,-9.6,83.1,81.0
1786369286.1261294,-1.233,4.76,8.068,-0.137,0.015,-0.066,20.4,-10.35,84.6,81.0
1786369286.3297884,-1.228,4.492,7.975,0.076,-0.062,0.005,20.55,-9.45,84.0,70.0
1786369286.3298275,-1.286,4.59,8.018,0.093,-0.085,0.014,19.8,-8.7,85.05,70.0
1786369286.3298433,-1.326,4.702,8.112,0.106,-0.085,0.015,19.5,-9.0,82.2,59.0
1786369286.5370972,-1.075,5.045,8.164,-0.008,0.007,-0.02,20.4,-7.65,83.1,75.0
1786369286.5371501,-1.082,4.937,8.112,-0.02,-0.005,-0.031,19.65,-8.4,82.05,75.0
1786369286.5371728,-1.034,4.867,8.152,-0.021,0.015,-0.021,20.85,-6.9,82.65,75.0
1786369286.7399483,-1.295,4.824,8.121,-0.027,-0.003,-0.014,18.9,-7.2,82.65,76.0
1786369286.7399986,-1.298,4.87,8.104,-0.029,0.001,-0.018,19.8,-8.7,84.0,76.0
1786369286.7400196,-1.231,4.92,8.147,-0.031,0.009,-0.017,19.05,-7.05,83.7,84.0
1786369286.9447422,-1.188,4.817,8.143,-0.038,0.048,0.064,20.25,-8.25,84.3,78.0
1786369286.9447975,-1.276,4.8,8.2,-0.031,0.047,0.077,21.9,-7.2,83.1,78.0
1786369286.9448206,-1.298,4.784,8.198,-0.032,0.047,0.067,20.85,-8.1,81.6,68.0
1786369287.156135,-1.336,4.724,8.145,0.044,-0.004,-0.015,21.6,-8.1,83.85,83.0
1786369287.1561885,-1.24,4.848,8.167,0.037,0.009,-0.015,21.3,-8.7,84.0,83.0
1786369287.15621,-1.293,4.822,8.133,0.037,0.018,-0.021,20.55,-7.8,83.7,84.0
1786369287.3554008,-1.104,5.004,8.167,0.008,0.016,0.021,21.75,-7.05,82.95,92.0
1786369287.355451,-1.111,4.958,8.203,0.0,0.008,0.036,20.55,-7.05,82.2,92.0
1786369287.3554723,-1.221,4.925,8.212,-0.005,0.021,0.053,21.3,-6.3,84.0,84.0
1786369287.5600836,-1.403,4.695,8.013,-0.038,0.047,-0.071,22.05,-7.05,84.75,86.0
1786369287.560131,-1.444,4.676,7.97,-0.02,0.026,-0.06,20.4,-7.2,82.65,86.0
1786369287.5601506,-1.362,4.611,7.937,0.014,0.003,-0.048,20.1,-8.4,83.4,86.0
1786369287.7647486,-1.338,5.15,8.162,0.029,-0.021,-0.014,21.6,-6.15,83.85,89.0
1786369287.7648077,-1.271,5.061,8.222,0.009,-0.018,-0.011,20.85,-6.9,84.15,89.0
1786369287.7648325,-1.298,5.1,8.195,-0.014,-0.012,-0.012,21.0,-5.55,84.0,89.0
1786369287.969321,-1.12,4.973,8.088,-0.048,0.021,0.005,19.8,-7.5,83.25,88.0
1786369287.969374,-1.19,4.958,8.073,-0.047,0.029,0.004,21.0,-5.1,84.75,88.0
1786369287.9693956,-1.171,4.927,8.059,-0.055,0.036,0.004,21.9,-7.65,84.6,88.0
1786369288.1747456,-1.432,4.992,8.071,-0.015,0.002,-0.015,21.15,-6.9,82.65,73.0
1786369288.1747963,-1.391,4.978,8.097,-0.02,-0.003,-0.007,20.4,-7.65,85.35,73.0
1786369288.1748173,-1.367,4.956,8.083,-0.033,0.0,-0.015,20.1,-7.65,82.35,73.0
1786369288.3787694,-1.288,4.82,8.085,-0.063,0.023,0.019,19.5,-7.05,84.75,89.0
1786369288.3788118,-1.307,4.76,8.092,-0.051,0.015,0.023,20.4,-8.1,84.15,89.0
1786369288.3788288,-1.336,4.705,8.073,-0.039,0.007,0.019,19.5,-8.25,85.8,89.0
1786369288.5840724,-1.379,4.848,8.1,-0.004,0.003,-0.018,21.15,-8.1,83.85,74.0
1786369288.7884102,-1.322,4.831,8.114,-0.044,0.015,0.016,20.25,-7.05,83.7,97.0
1786369288.7884722,-1.29,4.846,8.073,-0.042,0.014,0.009,19.5,-7.05,82.5,82.0
1786369288.7885146,-1.369,4.853,8.059,-0.032,0.014,0.001,19.8,-7.8,84.0,82.0
1786369288.9935527,-1.353,4.889,8.068,-0.005,0.045,-0.004,19.8,-7.8,82.95,82.0
1786369288.9935977,-1.329,4.793,8.135,-0.015,0.014,-0.007,21.15,-7.2,84.9,83.0
1786369288.9936202,-1.243,4.779,8.179,-0.015,-0.004,0.007,19.8,-7.8,83.7,83.0
1786369289.1986315,-1.338,4.906,8.083,0.004,-0.005,0.007,19.8,-8.25,84.0,75.0
1786369289.1986945,-1.322,4.911,8.167,-0.011,0.004,0.006,21.3,-8.7,84.75,76.0
1786369289.1987195,-1.353,4.937,8.104,-0.01,0.011,0.001,20.4,-8.1,84.6,76.0
1786369289.4029272,-1.29,4.824,8.159,-0.024,0.013,-0.004,20.1,-8.85,83.4,88.0
1786369289.403001,-1.233,4.822,8.114,-0.022,0.006,0.004,20.55,-6.75,83.7,90.0
1786369289.403031,-1.219,4.817,8.124,-0.032,0.001,0.005,20.4,-7.65,82.65,90.0
1786369289.6082885,-1.288,4.889,8.095,-0.018,0.009,-0.016,20.1,-6.9,83.4,94.0
1786369289.6083443,-1.238,4.92,8.1,-0.021,0.001,-0.004,19.8,-8.7,85.05,94.0
1786369289.6083686,-1.269,4.855,8.097,-0.02,0.0,-0.007,20.1,-7.65,84.6,94.0
1786369289.813212,-1.25,4.899,8.159,-0.026,0.007,0.001,20.1,-8.1,84.15,87.0
1786369289.8132787,-1.238,4.884,8.14,-0.025,0.013,-0.006,19.8,-7.8,83.25,87.0
1786369289.8133068,-1.209,4.846,8.138,-0.017,0.021,-0.001,21.0,-7.5,84.3,87.0
1786369290.0173678,-1.269,4.908,8.181,-0.037,0.003,0.002,19.8,-7.8,82.95,74.0
1786369290.0174277,-1.252,4.887,8.262,-0.055,0.022,-0.006,21.15,-7.2,83.85,74.0
1786369290.0176446,-1.25,4.879,8.258,-0.061,0.025,-0.015,20.25,-7.8,85.05,74.0
1786369290.2243063,-1.245,4.743,8.064,-0.044,0.019,-0.01,22.5,-9.75,83.25,70.0
1786369290.4268286,-1.393,4.798,8.183,-0.032,-0.028,-0.031,19.35,-8.4,83.85,72.0
1786369290.4269066,-1.353,4.851,8.167,-0.037,-0.038,-0.039,21.15,-6.45,84.6,72.0
1786369290.4269402,-1.298,4.824,8.145,-0.044,-0.034,-0.049,21.75,-8.7,84.0,72.0
1786369290.6313548,-1.183,4.752,8.217,-0.04,-0.007,0.019,19.5,-9.0,82.5,71.0
1786369290.6314132,-1.053,4.743,8.226,-0.046,0.009,0.015,20.1,-9.6,83.1,71.0
1786369290.6314375,-1.161,4.724,8.203,-0.058,0.04,0.012,20.4,-10.05,83.1,71.0
1786369290.836255,-1.25,4.736,8.219,-0.053,0.04,0.04,19.35,-9.6,83.85,66.0
1786369290.836321,-1.25,4.726,8.236,-0.056,0.052,0.034,20.25,-8.7,84.0,66.0
1786369291.0418954,-1.355,4.58,8.195,-0.002,0.034,0.021,21.0,-8.7,83.7,64.0
1786369291.0419397,-1.542,4.523,8.262,0.001,0.023,0.019,21.9,-10.35,83.4,64.0
1786369291.2460575,-1.329,4.585,8.375,-0.004,-0.035,-0.063,21.3,-9.0,84.3,77.0
1786369291.2461233,-1.331,4.635,8.315,-0.01,-0.036,-0.064,20.85,-8.4,84.6,77.0
1786369291.2461565,-1.271,4.585,8.286,-0.016,-0.027,-0.057,20.4,-10.05,84.6,63.0
1786369291.4511123,-1.173,4.666,8.09,-0.032,0.022,0.008,20.85,-10.8,82.35,69.0
1786369291.4511862,-1.247,4.664,8.109,-0.021,0.009,0.011,19.8,-9.45,84.75,59.0
1786369291.4512198,-1.279,4.594,8.152,-0.002,-0.003,0.017,21.0,-10.2,82.5,59.0
1786369291.6560647,-1.226,4.788,8.337,-0.004,-0.011,-0.011,18.9,-8.4,83.4,60.0
1786369291.6561234,-1.161,4.851,8.332,-0.018,0.001,-0.003,19.05,-8.7,84.0,60.0
1786369291.656149,-1.173,4.824,8.329,-0.039,0.021,-0.007,19.5,-6.3,82.95,60.0
1786369291.8616052,-1.231,4.638,8.219,0.008,-0.003,0.031,20.25,-8.7,82.95,72.0
1786369291.8616726,-1.264,4.664,8.267,0.007,-0.001,0.022,19.65,-11.55,84.15,72.0
1786369291.8616982,-1.252,4.81,8.224,-0.001,0.009,0.016,20.85,-9.6,83.1,72.0
1786369292.065031,-1.274,4.63,8.092,0.003,0.058,0.035,21.0,-9.75,82.2,64.0
1786369292.0650992,-1.247,4.606,8.107,0.024,0.059,0.042,20.25,-9.0,83.7,64.0
1786369292.0651264,-1.276,4.702,8.092,0.031,0.062,0.037,21.0,-9.45,83.25,64.0
1786369292.2715557,-1.252,4.831,8.152,0.069,0.017,0.039,20.4,-7.2,85.65,73.0
1786369292.2716017,-1.319,4.918,8.191,0.066,0.021,0.037,21.75,-7.8,84.3,73.0
1786369292.4817166,-1.317,4.793,8.183,-0.015,0.052,0.025,20.4,-8.1,84.6,79.0
1786369292.4818034,-1.267,4.887,8.068,-0.026,0.035,0.026,21.15,-8.1,84.15,79.0
1786369292.481838,-1.274,4.836,8.064,-0.025,0.039,0.027,22.65,-8.4,86.1,79.0
1786369292.6793654,-1.29,5.143,8.107,-0.009,0.051,0.018,22.05,-8.25,85.5,71.0
1786369292.6794415,-1.338,5.092,8.114,-0.012,0.07,0.018,21.3,-8.7,84.75,71.0
1786369292.6794736,-1.427,5.009,8.109,-0.029,0.053,0.007,20.4,-8.1,84.9,71.0
1786369292.8854127,-1.528,4.891,8.092,0.026,-0.03,0.046,21.6,-7.65,84.15,76.0
1786369292.8855264,-1.568,4.946,8.138,0.014,-0.023,0.035,20.55,-7.05,84.0,76.0
1786369292.8855562,-1.597,4.956,8.14,0.015,-0.003,0.014,22.35,-7.2,84.9,76.0
1786369293.0905986,-1.111,4.925,7.954,-0.015,0.015,-0.035,21.6,-6.45,84.6,80.0
1786369293.0906425,-1.085,4.93,7.992,-0.006,0.007,-0.02,21.0,-7.8,85.5,80.0
1786369293.090661,-1.106,4.966,8.059,0.001,-0.005,-0.002,21.15,-7.65,86.4,80.0
1786369293.2934368,-1.46,4.968,8.059,-0.003,0.015,-0.009,22.05,-8.25,85.05,174.0
1786369293.2935376,-1.36,4.887,8.121,0.004,0.014,-0.019,22.5,-9.0,85.5,153.0
1786369293.2935655,-1.425,4.951,8.145,-0.006,-0.001,-0.021,21.75,-9.0,84.75,153.0
1786369293.4987218,-1.381,4.879,7.994,-0.009,-0.02,-0.001,23.25,-9.0,85.8,81.0
1786369293.4987736,-1.413,4.949,8.011,-0.005,-0.028,0.006,21.3,-8.25,84.3,81.0
1786369293.4987948,-1.391,4.973,8.013,0.003,-0.021,0.007,21.6,-7.65,84.9,166.0
1786369293.7027895,-1.283,4.937,7.997,-0.013,0.016,-0.013,22.5,-7.05,84.3,81.0
1786369293.70285,-1.226,4.934,8.018,-0.009,0.019,-0.012,21.6,-8.1,85.35,81.0
1786369293.7028751,-1.293,4.93,8.004,-0.004,0.011,-0.005,22.5,-6.75,85.8,78.0
1786369293.9079869,-1.417,5.088,8.088,-0.011,0.009,0.011,21.3,-9.0,86.25,73.0
1786369293.9080372,-1.324,5.157,8.109,-0.024,0.013,0.001,21.3,-9.0,85.5,73.0
1786369293.9080591,-1.314,5.15,8.1,-0.037,0.02,0.009,20.85,-7.65,85.65,77.0
1786369294.1122937,-1.312,4.918,7.958,-0.015,0.023,0.023,21.0,-6.3,84.0,85.0
1786369294.112335,-1.372,4.913,8.006,-0.006,0.019,0.024,21.75,-7.05,86.55,85.0
1786369294.112354,-1.329,4.942,7.997,0.006,0.016,0.019,22.5,-6.75,83.7,159.0
1786369294.3181267,-1.408,4.973,8.052,0.014,-0.012,-0.019,22.65,-7.65,86.1,167.0
1786369294.3181944,-1.372,5.023,8.047,0.017,-0.013,-0.019,21.75,-8.7,85.8,167.0
1786369294.3182213,-1.369,4.997,8.073,0.011,-0.027,-0.009,21.0,-6.3,85.5,160.0
1786369294.522531,-1.293,5.104,7.925,0.003,0.006,-0.007,22.35,-7.2,86.1,176.0
1786369294.5225918,-1.288,5.092,7.858,0.005,0.011,0.002,22.05,-6.75,86.25,176.0
1786369294.522617,-1.293,5.107,7.884,0.006,0.011,-0.004,24.15,-6.45,83.85,176.0
1786369294.7297335,-1.154,5.227,8.126,0.013,-0.002,0.054,21.9,-6.9,85.65,162.0
1786369294.729789,-1.159,5.171,8.162,-0.011,0.001,0.063,22.5,-6.75,84.75,162.0
1786369294.7298126,-1.341,5.112,8.198,-0.022,0.013,0.063,19.8,-7.05,84.3,162.0
1786369294.9314082,-1.484,5.198,7.805,0.098,-0.034,0.126,23.4,-8.4,86.1,160.0
1786369294.9315023,-1.712,5.207,8.001,0.086,-0.027,0.093,21.9,-8.1,84.9,140.0
1786369294.931541,-1.86,5.155,8.037,0.071,-0.006,0.053,23.1,-6.9,85.65,140.0
1786369295.1363542,-1.307,5.128,8.164,-0.182,-0.024,-0.176,22.65,-7.2,85.65,135.0
1786369295.1364226,-1.324,5.071,7.98,-0.215,-0.123,-0.137,22.35,-6.15,85.65,162.0
1786369295.1364508,-1.496,5.009,7.865,-0.243,-0.264,-0.067,21.0,-6.75,84.3,162.0
1786369295.341714,-0.86,5.32,7.901,0.01,0.038,-0.044,21.15,-7.2,83.4,152.0
1786369295.3417687,-0.792,5.193,7.882,0.01,0.045,-0.019,20.4,-7.65,84.6,165.0
1786369295.341792,-0.766,5.126,7.925,0.009,0.071,-0.001,20.85,-5.4,82.95,165.0
1786369295.54662,-1.506,5.128,7.973,-0.033,0.045,0.037,22.5,-5.55,84.3,173.0
1786369295.5467007,-1.477,5.08,7.958,-0.02,0.047,0.023,21.0,-7.05,84.15,163.0
1786369295.546726,-1.415,5.042,7.925,-0.017,0.056,0.0,23.1,-6.9,84.6,163.0
1786369295.7509568,-1.202,4.958,8.047,-0.02,-0.001,0.028,21.15,-6.15,86.7,166.0
1786369295.7510433,-1.168,5.001,8.131,-0.02,-0.014,0.031,22.05,-5.85,85.5,184.0
1786369295.7510884,-1.216,4.958,8.107,-0.022,-0.007,0.042,21.15,-8.1,84.15,184.0
1786369295.9557939,-1.432,4.994,7.946,0.002,0.005,-0.027,22.5,-7.05,85.05,172.0
1786369295.9558532,-1.592,5.052,7.966,0.006,-0.019,-0.024,22.05,-5.85,84.0,149.0
1786369295.9558768,-1.247,5.009,7.954,0.012,-0.026,-0.045,21.15,-6.9,84.6,149.0
1786369296.1611884,-1.223,5.231,7.946,-0.009,0.027,-0.016,22.65,-6.9,83.85,163.0
1786369296.1612427,-1.199,5.227,7.951,-0.011,0.024,-0.003,20.85,-5.7,85.35,175.0
1786369296.161266,-1.245,5.188,7.863,-0.014,0.023,0.008,21.15,-6.45,83.85,175.0
1786369296.3658304,-1.286,5.109,8.097,-0.013,0.021,0.04,22.65,-7.2,85.35,171.0
1786369296.3658922,-1.367,5.076,8.009,-0.019,0.027,0.042,20.85,-6.9,85.35,171.0
1786369296.3659174,-1.439,5.054,8.076,-0.03,0.03,0.024,22.5,-5.55,83.25,154.0
1786369296.5700922,-1.374,5.097,7.985,-0.017,-0.024,-0.026,21.6,-7.65,85.35,142.0
1786369296.5701566,-1.317,5.119,8.025,-0.016,-0.021,-0.029,22.05,-6.3,84.75,142.0
1786369296.5701895,-1.255,5.121,7.956,-0.021,-0.014,-0.03,20.4,-5.4,84.6,142.0
1786369296.7774181,-1.276,5.143,7.975,-0.004,-0.008,-0.011,22.35,-6.9,83.4,166.0
1786369296.777465,-1.293,5.066,7.966,-0.011,-0.007,-0.002,21.6,-5.7,83.85,166.0
1786369296.777516,-1.279,5.155,7.944,-0.015,0.002,0.0,21.75,-5.1,84.75,160.0
1786369296.9805205,-1.269,5.112,8.009,-0.03,0.024,0.008,21.3,-5.1,85.5,150.0
1786369296.9805834,-1.271,5.045,7.985,-0.034,0.028,0.022,23.1,-6.45,84.9,150.0
1786369296.9806094,-1.31,5.066,7.949,-0.03,0.026,0.02,21.15,-7.2,84.9,150.0
1786369297.1843243,-1.362,5.009,7.963,-0.014,0.006,0.014,21.3,-6.75,84.75,159.0
1786369297.1843975,-1.334,5.073,8.013,-0.023,0.012,0.014,20.85,-6.45,84.9,159.0
1786369297.3962638,-1.334,5.013,8.04,-0.023,0.019,-0.01,20.85,-6.15,84.6,170.0
1786369297.3963397,-1.302,5.064,8.023,-0.026,0.005,-0.013,21.9,-6.45,85.65,170.0
1786369297.3963711,-1.269,5.004,7.999,-0.023,0.001,-0.008,23.85,-6.45,83.4,170.0
1786369297.5947082,-1.326,5.1,8.018,-0.014,-0.001,-0.007,22.05,-5.55,84.0,160.0
1786369297.5947602,-1.302,5.071,7.982,-0.019,-0.003,-0.002,21.9,-6.45,84.15,160.0
1786369297.594782,-1.274,5.092,7.973,-0.014,0.006,-0.009,21.0,-5.85,84.75,160.0
1786369297.7965302,-1.346,5.049,8.011,-0.022,0.024,-0.012,21.75,-5.55,84.0,164.0
1786369297.7966077,-1.31,4.992,7.951,-0.02,0.028,-0.012,21.15,-6.45,83.85,164.0
1786369297.8081136,-1.305,4.961,7.932,-0.019,0.016,-0.013,23.25,-5.85,84.75,164.0
1786369298.0041838,-1.389,5.1,8.037,-0.018,0.004,-0.001,21.6,-6.15,82.65,156.0
1786369298.0042396,-1.346,5.013,8.028,-0.023,-0.001,-0.005,21.15,-7.2,86.1,156.0
1786369298.004263,-1.262,5.018,8.028,-0.035,0.024,-0.012,22.35,-6.15,84.15,156.0
1786369298.2146683,-1.326,5.069,8.025,-0.003,-0.006,-0.015,22.35,-6.15,84.9,153.0
1786369298.2147064,-1.369,5.095,8.049,-0.009,0.005,-0.022,21.6,-7.2,84.9,153.0
1786369298.2147224,-1.331,5.054,8.042,-0.009,0.012,-0.027,21.3,-5.55,85.5,153.0
1786369298.4141843,-1.271,5.119,8.013,-0.027,0.011,0.001,21.75,-8.25,84.0,163.0
1786369298.6158562,-1.384,5.066,8.042,-0.031,0.013,0.018,20.1,-7.2,84.9,173.0
1786369298.6159258,-1.355,5.073,8.045,-0.046,0.021,0.009,21.9,-8.1,86.1,173.0
1786369298.6271112,-1.381,5.057,8.016,-0.046,0.022,0.018,22.8,-7.05,85.8,173.0
1786369298.8229072,-1.298,4.946,7.992,-0.027,0.01,0.014,22.8,-7.05,86.55,154.0
1786369298.8229628,-1.317,4.968,8.013,-0.022,0.008,0.012,21.3,-7.8,85.8,154.0
1786369298.822986,-1.36,4.958,8.018,-0.022,0.005,0.011,22.35,-8.85,85.35,154.0
1786369299.2328794,-1.324,4.992,7.977,-0.014,0.015,0.011,21.3,-6.3,83.7,165.0
1786369299.2329466,-1.286,5.013,7.997,-0.016,0.017,0.004,21.75,-6.75,84.75,165.0
1786369299.2329743,-1.343,4.973,7.977,-0.012,0.008,0.012,22.8,-5.85,85.05,165.0
1786369299.4371223,-1.302,4.985,8.03,-0.01,0.003,-0.006,22.5,-7.05,84.75,156.0
1786369299.4371817,-1.252,5.037,8.016,-0.01,0.004,-0.003,21.3,-7.05,86.25,156.0
1786369299.4372106,-1.274,5.037,8.004,-0.012,0.005,-0.002,22.35,-6.9,84.15,156.0
1786369299.6420817,-1.288,5.028,7.989,-0.032,0.021,0.005,23.25,-6.3,84.0,162.0
1786369299.6421692,-1.3,5.025,7.951,-0.028,0.006,0.004,21.75,-7.8,85.05,162.0
1786369299.642212,-1.312,5.009,7.987,-0.022,0.012,0.007,22.05,-8.7,85.05,162.0
1786369299.8472552,-1.334,5.013,8.052,-0.003,-0.008,0.003,22.35,-8.1,84.9,171.0
1786369299.8473227,-1.302,5.004,8.033,-0.009,-0.007,0.002,20.85,-6.45,86.1,164.0
1786369299.847351,-1.281,5.025,8.042,-0.024,0.007,-0.007,21.75,-6.3,84.75,164.0
1786369300.0517428,-1.288,5.045,8.025,-0.03,0.003,-0.006,21.9,-6.9,85.65,160.0
1786369300.051824,-1.305,5.033,8.016,-0.036,0.019,-0.013,23.1,-7.2,83.85,168.0
1786369300.0518622,-1.377,4.958,8.042,-0.027,0.021,-0.007,22.35,-6.9,85.35,168.0
1786369300.2578344,-1.288,4.985,7.98,-0.019,0.0,0.001,22.65,-7.65,84.15,158.0
1786369300.2578862,-1.343,4.975,8.028,-0.008,0.005,-0.005,22.5,-8.25,84.3,150.0
1786369300.257908,-1.322,5.011,8.035,-0.014,0.005,-0.001,20.85,-8.1,83.4,150.0
1786369300.461463,-1.29,5.071,8.04,-0.02,0.018,-0.012,21.9,-6.45,84.6,154.0
1786369300.4615476,-1.293,5.013,8.052,-0.027,0.019,-0.011,19.65,-9.15,84.9,150.0
1786369300.461569,-1.25,5.023,8.028,-0.021,0.018,-0.005,21.75,-6.75,84.75,150.0
1786369300.66745,-1.365,5.001,8.047,-0.019,0.007,0.001,21.3,-6.75,84.75,178.0
1786369300.6675758,-1.3,4.982,8.004,-0.004,0.019,-0.012,21.0,-7.5,85.5,151.0
1786369300.8714054,-1.279,5.073,8.042,-0.02,0.011,-0.011,22.05,-8.25,85.05,151.0
1786369300.8714643,-1.336,5.097,7.994,-0.016,0.018,-0.004,20.55,-8.25,84.3,151.0
1786369300.87151,-1.324,5.037,8.001,-0.019,0.016,-0.01,21.9,-8.1,85.35,161.0
1786369301.0761693,-1.302,5.057,8.066,-0.018,0.003,0.002,21.75,-8.25,85.8,148.0
1786369301.2831666,-1.255,4.99,8.071,-0.03,0.015,-0.007,22.05,-6.75,82.95,163.0
1786369301.2832372,-1.247,5.054,8.049,-0.029,0.016,-0.007,23.25,-7.05,84.3,163.0
1786369301.2832658,-1.3,5.061,7.973,-0.023,0.012,0.016,21.6,-6.45,85.35,160.0
1786369301.4858832,-1.336,4.985,8.013,-0.007,-0.002,0.005,20.55,-8.25,85.05,169.0
1786369301.4859433,-1.317,5.018,8.056,-0.015,0.002,0.003,22.05,-8.25,85.05,169.0
1786369301.4859734,-1.365,4.99,8.095,-0.016,0.013,0.001,23.1,-7.2,84.9,169.0
1786369301.690203,-1.279,4.956,8.076,-0.016,0.014,-0.001,21.15,-7.2,85.35,157.0
1786369301.690257,-1.329,4.966,8.037,-0.014,0.011,0.003,21.75,-8.25,84.75,157.0
1786369301.6902812,-1.233,4.982,8.023,-0.012,-0.001,0.007,21.3,-7.05,84.75,157.0
1786369301.9013612,-1.271,4.985,8.064,-0.015,0.004,0.009,21.3,-7.05,84.75,157.0
1786369301.9014342,-1.262,4.985,8.047,-0.012,0.005,0.004,22.5,-7.5,85.8,155.0
1786369301.9014633,-1.346,5.004,8.066,-0.011,0.01,0.009,22.05,-5.85,84.3,155.0
1786369302.1001925,-1.365,4.966,8.071,-0.019,0.008,0.001,21.75,-7.5,85.05,151.0
1786369302.10029,-1.384,5.021,8.049,-0.015,0.008,0.004,21.75,-8.25,85.05,151.0
1786369302.1003234,-1.353,5.04,8.028,-0.022,0.007,-0.006,22.35,-6.9,84.6,151.0
1786369302.3043246,-1.31,4.963,8.042,-0.017,0.012,-0.005,21.9,-8.1,84.15,151.0
1786369302.3043873,-1.314,4.906,8.047,-0.016,0.023,-0.009,21.15,-6.9,83.1,151.0
1786369302.304418,-1.314,5.049,8.004,-0.015,0.023,-0.008,22.35,-9.6,85.35,171.0
1786369302.5128932,-1.283,4.985,8.037,-0.016,0.012,-0.002,21.3,-7.05,84.3,171.0
1786369302.5129406,-1.259,4.951,8.004,-0.009,-0.004,-0.002,21.3,-7.8,84.75,171.0
1786369302.5129602,-1.276,4.966,8.004,-0.012,-0.004,0.001,21.0,-8.7,84.75,171.0
1786369302.7154117,-1.319,4.968,8.04,-0.012,0.001,0.008,21.0,-7.8,85.05,171.0
1786369302.7155259,-1.324,5.021,8.085,-0.019,0.006,-0.004,21.15,-8.1,84.15,156.0
1786369302.7155561,-1.317,5.028,8.042,-0.032,0.009,-0.004,21.9,-8.1,84.6,156.0
1786369302.9218094,-1.274,4.961,8.059,-0.03,0.013,-0.013,19.8,-8.7,85.05,159.0
1786369302.921853,-1.288,4.994,8.061,-0.032,0.011,-0.009,21.3,-8.7,85.8,159.0
1786369302.921872,-1.312,4.958,8.097,-0.027,0.007,0.0,22.35,-8.4,84.6,159.0
1786369303.125212,-1.274,4.937,7.997,-0.019,0.011,-0.013,21.0,-6.75,84.0,150.0
1786369303.125269,-1.219,4.894,8.059,-0.014,0.007,-0.009,22.65,-8.4,85.35,150.0
1786369303.1252925,-1.288,4.951,8.049,-0.001,0.002,0.002,21.3,-6.75,85.5,150.0
1786369303.3292007,-1.288,4.958,8.028,-0.016,0.001,-0.006,22.35,-6.9,84.6,164.0
1786369303.329271,-1.372,5.004,8.085,-0.018,0.003,-0.005,22.8,-7.8,84.3,164.0
1786369303.3292985,-1.326,4.956,8.116,-0.015,0.001,-0.01,21.6,-8.85,83.85,164.0
1786369303.533466,-1.288,5.016,8.071,-0.019,0.014,-0.005,21.6,-8.4,86.1,163.0
1786369303.5335636,-1.317,4.922,8.068,-0.023,0.014,-0.01,21.9,-8.85,84.6,163.0
1786369303.533593,-1.295,4.934,8.09,-0.029,0.012,-0.006,21.75,-7.8,85.05,163.0
1786369303.7417912,-1.365,4.934,8.03,-0.007,0.01,-0.006,22.5,-8.25,84.3,160.0
1786369303.7418413,-1.312,4.944,8.035,-0.006,0.01,-0.011,21.0,-6.75,84.75,160.0
1786369303.7418635,-1.288,4.925,7.987,0.001,0.011,-0.007,20.25,-7.5,85.5,160.0
1786369303.9445732,-1.257,5.013,8.09,-0.027,0.019,0.011,22.5,-7.05,83.7,166.0
1786369303.9446428,-1.274,4.987,8.133,-0.029,0.026,0.012,21.75,-7.8,85.05,166.0
1786369303.9446712,-1.341,4.963,8.056,-0.031,0.025,0.01,21.3,-8.25,84.3,166.0
1786369304.1481352,-1.326,5.035,8.056,-0.015,0.006,-0.006,21.0,-8.25,85.8,148.0
1786369304.148215,-1.312,4.918,8.097,-0.011,0.009,-0.007,22.65,-8.85,84.9,148.0
1786369304.14825,-1.353,4.973,8.049,-0.004,0.002,-0.007,20.55,-8.25,82.95,148.0
1786369304.3526957,-1.243,4.944,8.09,-0.024,0.02,-0.005,20.85,-8.1,84.6,184.0
1786369304.3527799,-1.288,4.966,8.011,-0.024,0.019,0.006,20.85,-8.85,84.15,184.0
1786369304.3528116,-1.31,4.92,8.016,-0.027,0.011,0.005,23.25,-6.75,84.75,184.0
1786369304.5639656,-1.312,4.93,8.033,-0.016,0.02,-0.001,21.6,-8.4,85.65,151.0
1786369304.5640218,-1.3,4.939,8.097,-0.021,0.029,-0.007,20.85,-8.1,84.6,151.0
1786369304.5640445,-1.362,4.961,8.049,-0.026,0.019,-0.001,21.6,-8.1,84.15,151.0
1786369304.7681642,-1.305,4.982,8.045,-0.017,0.01,-0.01,20.55,-8.7,85.5,142.0
1786369304.7682455,-1.317,4.92,8.066,-0.018,0.011,-0.009,21.75,-7.5,84.0,142.0
1786369304.7682815,-1.259,4.949,8.076,-0.023,0.018,-0.005,21.6,-7.65,84.9,144.0
1786369304.9682758,-1.362,4.963,8.088,-0.02,0.011,-0.006,21.9,-9.15,85.35,169.0
1786369304.9683437,-1.281,4.954,8.097,-0.019,0.013,-0.004,22.65,-8.85,84.9,169.0
1786369304.9683728,-1.338,4.92,8.049,-0.019,0.01,-0.005,21.15,-7.65,84.9,148.0
1786369305.172494,-1.279,4.951,8.061,-0.025,0.007,0.003,21.15,-7.65,85.35,158.0
1786369305.376863,-1.293,4.927,8.013,-0.006,-0.01,-0.004,21.9,-7.2,84.15,153.0
1786369305.3769329,-1.288,4.961,8.09,0.001,0.004,0.003,23.1,-8.85,84.9,153.0
1786369305.3769617,-1.276,5.052,8.131,-0.005,0.006,0.0,22.5,-7.5,83.25,162.0
1786369305.5824046,-1.31,4.997,8.061,-0.024,0.019,-0.005,22.5,-7.8,84.3,152.0
1786369305.582443,-1.329,4.934,8.073,-0.023,0.023,-0.011,21.9,-7.65,84.6,152.0
1786369305.787587,-1.369,4.92,8.04,-0.006,-0.001,-0.012,21.3,-7.5,85.5,159.0
1786369305.7876463,-1.365,5.004,8.028,-0.004,0.001,-0.015,21.0,-7.5,84.75,159.0
1786369305.7876787,-1.343,4.956,8.061,-0.006,0.007,-0.015,20.55,-6.75,84.75,160.0
1786369305.9955661,-1.343,5.018,8.049,-0.012,0.012,0.009,21.3,-8.25,83.25,155.0
1786369305.9956398,-1.336,4.966,8.047,-0.012,0.011,0.003,20.25,-8.7,85.5,155.0
1786369305.9956708,-1.353,4.93,8.119,-0.01,0.009,0.001,21.6,-8.1,84.9,155.0
1786369306.1992922,-1.348,4.978,7.985,0.011,-0.018,-0.011,22.35,-6.15,85.35,141.0
1786369306.1993797,-1.295,4.99,8.107,0.014,-0.002,-0.014,21.6,-6.9,85.35,141.0
1786369306.1994147,-1.324,4.973,8.042,0.014,-0.006,-0.007,21.9,-6.15,84.15,141.0
1786369306.4033272,-1.317,5.037,7.973,-0.017,-0.005,0.001,21.6,-7.65,84.9,164.0
1786369306.4034083,-1.29,5.03,8.061,-0.016,0.009,0.006,21.15,-6.9,83.4,164.0
1786369306.6051774,-1.331,4.992,8.049,-0.022,0.014,-0.016,20.85,-7.65,84.15,178.0
1786369306.6052306,-1.271,5.049,8.076,-0.019,0.018,-0.007,20.85,-7.2,84.15,179.0
1786369306.605251,-1.336,4.992,8.028,-0.019,0.015,-0.006,20.85,-6.9,83.4,179.0
1786369306.8100624,-1.319,5.023,8.021,-0.032,0.033,0.012,20.1,-7.2,85.65,150.0
1786369306.810113,-1.369,4.99,8.006,-0.036,0.032,0.013,21.9,-7.2,83.4,150.0
1786369306.8101337,-1.355,5.04,7.987,-0.035,0.012,0.016,21.3,-8.25,86.55,150.0
1786369307.0155447,-1.274,5.011,8.09,-0.031,0.02,0.006,21.75,-8.25,84.75,171.0
1786369307.0156262,-1.31,4.963,8.033,-0.028,0.021,0.001,21.3,-7.5,85.05,170.0
1786369307.0156636,-1.329,5.037,8.061,-0.027,0.02,0.009,21.6,-7.65,84.9,170.0
1786369307.2201395,-1.312,4.985,8.037,-0.026,0.004,0.001,22.8,-8.25,84.3,168.0
1786369307.2201972,-1.398,4.956,8.064,-0.029,0.01,-0.004,20.85,-7.65,84.15,161.0
1786369307.4310873,-1.3,4.915,8.011,-0.021,0.021,0.016,21.15,-6.9,84.6,169.0
1786369307.4311585,-1.343,4.968,8.054,-0.019,0.009,0.013,23.1,-8.1,84.6,158.0
1786369307.4311893,-1.362,4.975,8.08,-0.021,0.007,0.014,21.3,-6.3,85.05,158.0
1786369307.6300588,-1.279,4.887,8.03,-0.009,-0.008,0.009,20.85,-7.65,84.6,158.0
1786369307.6301272,-1.281,4.99,8.016,-0.002,-0.002,0.005,22.8,-8.25,85.5,158.0
1786369307.6301546,-1.329,5.004,8.107,0.0,-0.001,0.007,21.9,-8.1,85.35,157.0
1786369307.834499,-1.329,4.97,8.116,-0.023,0.008,-0.02,21.75,-7.5,84.75,169.0
1786369307.8345888,-1.276,4.958,8.054,-0.027,0.017,-0.019,21.6,-6.9,85.35,169.0
1786369307.8346343,-1.221,4.946,8.066,-0.028,0.02,-0.016,22.5,-7.8,85.5,175.0
1786369308.0414255,-1.338,4.939,8.068,-0.025,0.017,0.0,20.85,-7.65,84.6,161.0
1786369308.0415082,-1.372,4.903,8.059,-0.022,0.005,0.004,20.4,-8.4,84.9,161.0
1786369308.0415387,-1.231,4.906,8.083,-0.018,0.008,0.004,22.05,-8.7,85.05,161.0
1786369308.2511353,-1.319,4.963,8.001,-0.029,0.035,-0.012,22.05,-8.25,85.5,156.0
1786369308.2512057,-1.286,4.86,7.989,-0.029,0.028,-0.01,21.75,-7.8,84.75,156.0
1786369308.2512345,-1.307,4.858,7.975,-0.016,0.014,-0.005,21.0,-7.8,85.8,156.0
1786369308.4514105,-1.271,5.037,8.023,-0.023,0.026,-0.006,22.05,-7.8,84.0,157.0
1786369308.4514616,-1.295,4.942,8.03,-0.024,0.02,-0.008,21.15,-8.1,84.6,157.0
1786369308.4515152,-1.283,4.942,8.042,-0.017,0.015,-0.004,22.5,-5.85,84.3,157.0
1786369308.6614473,-1.386,4.98,8.045,-0.023,0.012,0.007,20.85,-8.1,85.65,153.0
1786369308.6615322,-1.415,4.906,8.021,-0.02,0.009,0.004,21.75,-7.5,84.3,153.0
1786369308.6615543,-1.448,4.887,7.994,-0.005,0.003,-0.005,21.15,-8.4,84.6,153.0
1786369308.863023,-1.199,4.997,8.061,-0.015,0.004,-0.006,21.0,-7.05,84.3,177.0
1786369308.8631036,-1.202,5.028,8.071,-0.019,0.007,0.005,20.1,-8.1,84.9,177.0
1786369308.863139,-1.252,4.985,8.001,-0.019,0.015,0.005,21.3,-6.75,85.05,177.0
1786369309.0633347,-1.312,4.961,8.054,-0.019,0.02,-0.008,22.05,-8.25,85.05,155.0
1786369309.2682843,-1.336,5.021,8.025,-0.022,0.011,-0.009,21.6,-6.45,85.65,149.0
1786369309.2683628,-1.365,5.018,7.999,-0.016,0.011,-0.005,22.05,-8.25,85.05,149.0
1786369309.2683983,-1.286,4.973,8.04,-0.019,0.016,-0.011,21.0,-7.5,84.75,149.0
1786369309.4803782,-1.386,4.961,8.088,-0.014,-0.007,-0.007,21.9,-8.1,83.85,158.0
1786369309.4804294,-1.274,4.973,8.045,-0.015,0.003,-0.011,20.55,-7.05,85.5,161.0
1786369309.4804513,-1.324,4.975,8.033,-0.015,0.01,-0.015,22.8,-7.8,84.3,161.0
1786369309.678215,-1.343,4.975,8.023,-0.007,-0.002,0.006,22.5,-8.25,83.25,146.0
1786369309.6782885,-1.381,5.004,8.047,-0.002,-0.002,0.0,22.65,-7.2,83.4,146.0
1786369309.6783204,-1.319,4.973,8.059,-0.005,-0.006,-0.012,22.35,-8.1,84.9,146.0
1786369309.8830333,-1.283,5.08,8.068,-0.002,-0.005,-0.017,20.55,-7.5,84.75,184.0
1786369309.883101,-1.3,5.071,8.049,-0.006,-0.002,-0.011,23.4,-8.1,85.35,184.0
1786369309.8831296,-1.283,5.057,8.104,-0.007,0.006,-0.011,20.55,-7.5,84.3,184.0
1786369310.0875335,-1.458,4.968,7.913,0.013,-0.005,-0.037,22.8,-6.3,84.3,160.0
1786369310.0875733,-1.377,4.937,7.956,0.019,-0.012,-0.046,23.1,-6.45,83.85,160.0
1786369310.0875888,-1.377,4.918,8.047,0.018,-0.025,-0.054,21.9,-5.7,83.85,160.0
1786369310.2916148,-1.257,5.138,7.999,0.003,0.005,-0.009,21.0,-6.3,82.95,172.0
1786369310.291669,-1.264,5.212,8.011,-0.003,0.014,-0.007,21.0,-5.55,85.5,172.0
1786369310.2916915,-1.302,5.179,7.961,-0.003,0.035,0.007,20.4,-5.4,85.35,171.0
1786369310.4980707,-1.381,5.057,7.901,0.036,0.044,0.011,22.8,-6.75,85.5,146.0
1786369310.4981277,-1.408,5.076,7.925,0.042,0.038,0.003,21.9,-5.7,85.65,146.0
1786369310.49815,-1.393,5.066,7.908,0.05,0.038,0.0,21.3,-6.3,84.75,146.0
1786369310.7003539,-1.496,5.253,8.061,0.057,0.011,-0.038,20.1,-4.95,84.6,185.0
1786369310.7004297,-1.585,5.303,8.001,0.041,-0.008,-0.066,20.85,-6.45,84.15,185.0
1786369310.7016785,-1.427,5.332,7.92,-0.003,-0.063,-0.044,23.25,-5.85,82.95,185.0
1786369310.9082572,-1.31,5.181,7.817,0.01,-0.066,-0.063,21.9,-5.7,84.15,162.0
1786369310.908308,-1.271,5.265,7.827,0.025,-0.038,-0.064,21.9,-4.5,84.6,162.0
1786369310.9083297,-1.29,5.358,7.803,0.034,-0.023,-0.064,22.65,-4.5,83.1,162.0
1786369311.1095335,-1.271,5.411,7.831,-0.037,0.023,0.005,21.6,-4.95,84.6,173.0
1786369311.1096072,-1.312,5.416,7.767,-0.038,0.011,0.006,21.15,-4.2,83.1,173.0
1786369311.1108508,-1.305,5.337,7.788,-0.042,0.004,0.014,21.3,-4.35,83.7,173.0
1786369311.3163948,-1.329,5.183,7.848,-0.039,0.032,0.002,21.0,-5.55,83.7,163.0
1786369311.3165255,-1.331,5.195,7.87,-0.049,0.035,0.001,21.6,-4.95,83.4,174.0
1786369311.3165834,-1.348,5.193,7.812,-0.042,0.026,-0.001,22.05,-5.85,82.95,174.0
1786369311.520451,-1.367,5.186,7.894,-0.035,0.011,0.009,21.15,-4.2,84.9,152.0
1786369311.5205212,-1.372,5.155,7.877,-0.029,0.008,0.004,22.05,-5.85,83.25,179.0
1786369311.520551,-1.358,5.222,7.882,-0.025,0.006,0.0,20.55,-5.1,84.0,179.0
1786369311.7261114,-1.343,5.167,7.934,-0.019,0.001,-0.016,21.75,-5.85,84.3,177.0
1786369311.7261674,-1.283,5.16,7.858,-0.013,0.007,-0.014,21.0,-5.1,84.0,177.0
1786369311.7261908,-1.324,5.248,7.896,-0.017,0.009,-0.016,21.3,-5.55,84.75,168.0
1786369311.9303212,-1.341,5.191,7.872,-0.011,0.011,-0.012,22.05,-4.8,84.75,171.0
1786369311.930391,-1.302,5.164,7.827,-0.011,0.016,-0.003,22.35,-6.15,84.6,171.0
1786369311.9306629,-1.389,5.2,7.841,0.005,0.013,-0.003,21.6,-5.4,82.65,165.0
1786369312.1369064,-1.35,5.157,7.827,-0.013,0.012,-0.007,21.75,-5.1,83.7,175.0
1786369312.1369607,-1.324,5.164,7.817,-0.007,0.009,0.001,22.05,-4.05,84.0,175.0
1786369312.1369843,-1.374,5.167,7.87,-0.004,0.0,-0.002,21.0,-4.35,85.5,157.0
1786369312.3401527,-1.346,5.26,7.817,-0.004,0.01,-0.016,22.35,-4.95,84.9,170.0
1786369312.3402007,-1.324,5.26,7.791,-0.005,0.018,-0.019,21.9,-4.5,84.9,170.0
1786369312.3402205,-1.353,5.262,7.872,-0.01,0.01,-0.023,21.9,-4.5,84.15,160.0
1786369312.545737,-1.343,5.222,7.898,0.004,-0.008,-0.007,22.05,-4.35,84.0,181.0
1786369312.545811,-1.355,5.258,7.91,-0.004,-0.005,-0.006,22.5,-4.8,82.95,181.0
1786369312.5458424,-1.353,5.301,7.901,-0.013,0.002,-0.014,22.35,-2.7,83.1,181.0
1786369312.7491603,-1.322,5.231,7.879,-0.025,0.015,0.007,20.85,-3.75,82.65,184.0
1786369312.749202,-1.269,5.282,7.87,-0.027,0.021,-0.002,20.55,-5.55,82.95,184.0
1786369312.7492197,-1.319,5.246,7.922,-0.04,0.013,0.006,22.35,-4.5,83.85,184.0
1786369312.9539497,-1.405,5.207,7.879,-0.02,-0.004,0.012,21.6,-4.5,84.6,166.0
1786369312.9539886,-1.293,5.152,7.922,-0.018,0.007,0.01,21.9,-4.95,82.65,166.0
1786369312.954005,-1.293,5.205,7.834,-0.02,0.024,-0.001,21.9,-4.95,82.65,166.0
1786369313.159965,-1.279,5.234,7.843,-0.012,0.006,0.013,21.6,-5.4,83.1,165.0
1786369313.3637757,-1.295,5.219,7.879,-0.004,0.005,-0.007,20.85,-6.15,83.85,178.0
1786369313.3638535,-1.255,5.174,7.915,-0.016,0.007,-0.01,22.05,-5.55,84.0,178.0
1786369313.363889,-1.346,5.296,7.93,-0.015,0.005,-0.006,22.05,-4.35,84.75,178.0
1786369313.5686448,-1.243,5.167,7.851,-0.028,0.02,0.003,21.9,-3.45,83.1,179.0
1786369313.5687172,-1.269,5.236,7.824,-0.029,0.02,0.015,21.3,-4.8,84.75,179.0
1786369313.568749,-1.281,5.239,7.827,-0.021,0.004,0.016,21.6,-3.75,83.4,179.0
1786369313.7738192,-1.326,5.282,7.889,-0.019,0.012,0.002,21.6,-4.5,83.85,175.0
1786369313.7738698,-1.307,5.241,7.877,-0.023,0.009,-0.002,21.9,-5.4,82.65,173.0
1786369313.7738922,-1.338,5.195,7.879,-0.031,0.014,0.001,20.85,-4.5,84.15,173.0
1786369313.9780838,-1.31,5.203,7.894,-0.028,0.007,0.006,21.75,-5.1,82.5,189.0
1786369313.978154,-1.348,5.179,7.908,-0.027,0.002,0.001,21.0,-4.8,84.3,178.0
1786369313.9781823,-1.317,5.183,7.867,-0.029,0.003,0.001,21.3,-4.35,84.3,178.0
1786369314.1832745,-1.247,5.181,7.922,-0.018,0.011,0.005,22.05,-5.55,83.25,165.0
1786369314.1833735,-1.274,5.212,7.887,-0.021,0.004,0.006,19.65,-4.5,83.85,175.0
1786369314.1834223,-1.25,5.193,7.908,-0.027,0.01,0.013,22.35,-6.45,84.6,175.0
1786369314.3877044,-1.252,5.121,7.898,-0.02,0.005,0.004,21.75,-5.85,85.05,181.0
1786369314.3877556,-1.338,5.198,7.882,-0.016,-0.003,0.011,22.05,-5.1,83.7,180.0
1786369314.3877776,-1.288,5.126,7.97,-0.013,-0.003,0.01,21.9,-7.2,84.6,180.0
1786369314.593107,-1.3,5.183,7.91,-0.022,0.011,0.006,22.35,-4.2,83.1,175.0
1786369314.5931568,-1.3,5.131,7.939,-0.016,0.005,0.004,21.3,-5.85,84.75,175.0
1786369314.593179,-1.221,5.186,7.882,-0.015,0.006,0.003,21.6,-5.7,84.15,175.0
1786369314.7983603,-1.331,5.119,7.877,0.0,0.01,-0.013,20.55,-4.8,82.95,176.0
1786369314.7984045,-1.312,5.174,7.927,0.003,-0.001,-0.015,20.25,-4.8,83.25,176.0
1786369314.798426,-1.271,5.164,7.954,-0.001,0.002,-0.016,22.05,-6.75,82.5,176.0
1786369315.0034578,-1.314,5.248,7.872,-0.029,0.005,-0.016,20.85,-4.95,83.1,182.0
1786369315.0035558,-1.274,5.207,7.922,-0.028,0.01,-0.009,19.8,-5.55,82.95,182.0
1786369315.2078512,-1.247,5.203,7.97,-0.005,0.03,0.007,20.85,-3.75,82.65,185.0
1786369315.207902,-1.343,5.286,7.918,-0.01,-0.006,0.006,20.1,-6.45,83.4,185.0
1786369315.4120061,-1.314,5.157,7.922,-0.027,0.011,0.0,21.3,-5.55,84.0,172.0
1786369315.4120798,-1.319,5.162,7.901,-0.018,0.001,0.002,21.75,-4.35,84.3,172.0
1786369315.4121132,-1.267,5.207,7.92,-0.018,-0.004,0.006,21.6,-5.7,84.6,172.0
1786369315.6166544,-1.281,5.169,7.887,-0.027,0.012,0.009,19.65,-4.95,83.4,172.0
1786369315.616724,-1.298,5.207,7.872,-0.018,0.006,0.004,21.75,-4.8,84.75,172.0
1786369315.6167521,-1.279,5.241,7.903,-0.023,0.006,0.008,21.6,-7.65,83.1,172.0
1786369315.8211133,-1.226,5.155,7.887,-0.028,0.014,0.009,20.4,-6.15,82.65,87.0
1786369315.8211715,-1.267,5.186,7.86,-0.019,0.013,0.007,21.6,-6.15,84.15,180.0
1786369315.821196,-1.235,5.119,7.901,-0.016,0.015,0.009,23.25,-5.85,84.75,180.0
1786369316.0339315,-1.31,5.186,7.901,-0.02,0.011,-0.001,21.6,-6.15,83.85,167.0
1786369316.0340135,-1.317,5.222,7.901,-0.022,0.015,-0.002,20.4,-5.4,82.35,167.0
1786369316.034047,-1.231,5.169,7.951,-0.018,0.02,-0.004,22.8,-6.3,82.95,167.0
1786369316.232397,-1.295,5.193,7.889,-0.012,0.008,-0.008,21.3,-5.55,83.25,163.0
1786369316.2324677,-1.283,5.183,7.937,-0.007,0.007,-0.004,22.5,-3.6,84.0,163.0
1786369316.2325418,-1.295,5.207,7.877,-0.009,0.012,0.0,21.0,-6.3,84.3,188.0
1786369316.4356947,-1.247,5.246,7.882,-0.025,0.018,0.008,21.3,-5.55,84.75,181.0
1786369316.4357781,-1.298,5.188,7.887,-0.027,0.019,0.004,23.1,-6.15,84.15,181.0
1786369316.4358056,-1.298,5.217,7.884,-0.03,0.021,-0.003,21.6,-5.7,84.9,195.0
1786369316.6467302,-1.29,5.229,7.973,-0.023,0.018,-0.002,20.85,-5.4,84.15,180.0
1786369316.6467848,-1.267,5.191,7.932,-0.022,0.018,-0.002,22.35,-5.7,84.6,180.0
1786369316.6468122,-1.264,5.148,7.944,-0.026,0.017,0.003,20.85,-6.45,83.4,186.0
1786369316.8513932,-1.295,5.219,7.879,-0.013,0.001,0.006,22.65,-5.4,83.85,184.0
1786369316.85147,-1.264,5.157,7.884,-0.01,-0.005,0.004,20.85,-5.7,82.65,184.0
1786369316.8515353,-1.305,5.203,7.879,-0.006,0.001,-0.003,21.0,-6.3,83.7,184.0
1786369317.2563753,-1.317,5.222,7.87,-0.021,0.031,-0.007,21.0,-5.1,83.7,191.0
1786369317.2564385,-1.293,5.097,7.812,-0.013,0.018,-0.001,21.0,-5.1,85.05,191.0
1786369317.256468,-1.317,5.176,7.853,-0.014,-0.001,0.003,21.6,-5.7,84.6,191.0
1786369317.460965,-1.338,5.217,8.009,-0.018,0.014,-0.011,21.6,-5.7,84.15,100.0
1786369317.461031,-1.264,5.222,7.93,-0.021,0.015,-0.013,20.85,-5.4,84.9,100.0
1786369317.4610586,-1.276,5.176,7.906,-0.021,0.015,-0.014,21.0,-6.3,85.05,100.0
1786369317.666341,-1.341,5.198,7.906,-0.009,-0.006,-0.013,22.35,-4.5,84.9,159.0
1786369317.666417,-1.324,5.227,7.958,-0.013,0.001,-0.01,21.6,-4.95,83.4,159.0
1786369317.6664515,-1.36,5.231,7.848,-0.004,0.006,-0.018,21.9,-5.7,84.6,159.0
1786369317.8693259,-1.29,5.162,7.942,-0.026,0.008,0.001,21.3,-4.35,83.25,96.0
1786369317.8693948,-1.238,5.195,7.865,-0.017,0.02,0.0,21.3,-5.85,84.3,174.0
1786369317.8694232,-1.271,5.26,7.882,-0.023,0.014,0.004,21.75,-5.1,82.95,174.0
1786369318.074245,-1.247,5.253,7.963,-0.012,0.003,-0.001,21.3,-5.85,83.7,90.0
1786369318.0742939,-1.348,5.219,7.927,-0.019,0.002,0.01,21.6,-6.45,84.6,175.0
1786369318.0743148,-1.331,5.246,7.891,-0.028,0.01,0.011,20.55,-5.85,83.25,175.0
1786369318.2791724,-1.262,5.133,7.894,-0.017,0.006,0.015,22.35,-5.4,83.85,180.0
1786369318.2792451,-1.295,5.148,7.934,-0.019,0.002,0.01,20.85,-6.45,82.65,193.0
1786369318.279276,-1.286,5.143,7.932,-0.015,0.002,0.013,22.35,-5.4,83.1,193.0
1786369318.4846175,-1.226,5.148,7.966,-0.02,0.011,-0.002,21.3,-5.1,82.95,176.0
1786369318.4847054,-1.255,5.164,7.946,-0.015,0.019,-0.005,20.4,-5.4,83.85,183.0
1786369318.4847496,-1.305,5.138,7.922,-0.024,0.015,-0.003,23.25,-5.55,83.7,183.0
1786369318.6895478,-1.338,5.205,7.896,-0.004,0.004,-0.003,19.05,-7.05,85.05,182.0
1786369318.6895974,-1.334,5.183,7.898,-0.001,0.009,-0.003,21.75,-6.75,83.25,182.0
1786369318.6896193,-1.216,5.152,7.889,-0.001,0.016,-0.004,21.3,-6.3,83.7,181.0
1786369318.8933792,-1.293,5.282,7.932,0.002,-0.003,-0.003,20.25,-5.85,84.0,176.0
1786369318.8934658,-1.322,5.248,7.942,0.001,-0.001,-0.003,22.05,-5.85,82.95,176.0
1786369318.893533,-1.317,5.308,7.894,-0.001,0.01,-0.012,22.35,-6.9,83.4,187.0
1786369319.0982814,-1.226,5.164,7.865,-0.029,0.013,0.006,20.25,-6.75,85.05,173.0
1786369319.0983503,-1.221,5.203,7.841,-0.023,0.003,0.019,21.0,-5.85,84.0,173.0
1786369319.0983782,-1.271,5.243,7.867,-0.023,0.001,0.013,20.1,-4.5,83.85,173.0
1786369319.3032386,-1.341,5.191,7.934,-0.007,0.01,-0.003,20.25,-5.1,83.7,163.0
1786369319.3034494,-1.279,5.222,7.922,-0.009,0.021,-0.008,20.1,-6.15,83.85,163.0
1786369319.3035026,-1.267,5.241,7.913,-0.01,0.019,-0.009,22.35,-5.7,84.6,163.0
1786369319.5118682,-1.334,5.14,7.855,0.005,0.02,-0.019,21.3,-4.8,85.5,183.0
1786369319.5119233,-1.331,5.186,7.841,0.009,0.003,-0.016,20.85,-4.95,83.85,183.0
1786369319.5119467,-1.348,5.229,7.846,0.024,-0.01,-0.01,21.75,-5.1,83.25,183.0
1786369319.7132504,-1.326,5.267,7.827,0.012,0.001,-0.027,20.25,-4.35,83.7,173.0
1786369319.7133255,-1.262,5.272,7.843,0.015,0.005,-0.019,21.9,-3.75,84.15,173.0
1786369319.713358,-1.274,5.346,7.815,0.005,0.016,-0.02,20.25,-4.35,81.75,173.0
1786369319.9173255,-1.398,5.327,7.887,-0.005,0.021,0.001,20.25,-4.35,84.0,193.0
1786369319.9174078,-1.319,5.365,7.846,-0.014,0.019,-0.012,21.3,-5.1,83.7,193.0
1786369319.9174469,-1.367,5.363,7.831,-0.019,0.024,-0.007,21.0,-4.8,82.5,193.0
1786369320.1222699,-1.331,5.306,7.796,-0.002,0.02,-0.002,22.05,-4.05,82.95,160.0
1786369320.1223216,-1.338,5.308,7.831,-0.001,0.018,-0.007,21.9,-4.2,83.4,160.0
1786369320.1223445,-1.331,5.346,7.831,-0.001,0.018,-0.003,21.9,-4.95,84.15,160.0
1786369320.3268287,-1.417,5.313,7.779,0.024,0.001,-0.013,21.6,-4.5,83.4,173.0
1786369320.3268654,-1.353,5.327,7.767,0.025,-0.001,-0.012,21.9,-3.45,83.85,173.0
1786369320.3268807,-1.405,5.339,7.755,0.025,0.0,-0.008,21.3,-4.35,84.3,173.0
1786369320.5319204,-1.238,5.416,7.748,-0.023,0.021,-0.014,21.75,-4.05,83.25,178.0
1786369320.5319946,-1.358,5.497,7.738,-0.019,0.01,-0.024,21.3,-4.35,83.7,178.0
1786369320.5320253,-1.362,5.389,7.69,-0.026,0.021,-0.026,22.65,-3.45,83.85,178.0
1786369320.736668,-1.384,5.327,7.781,-0.023,-0.001,0.007,21.75,-3.6,83.25,185.0
1786369320.7367287,-1.41,5.444,7.805,-0.027,-0.002,0.003,21.3,-4.05,83.25,162.0
1786369320.736752,-1.384,5.409,7.812,-0.029,-0.002,0.014,20.1,-4.2,82.65,162.0
1786369320.9420333,-1.362,5.349,7.757,-0.048,0.012,0.015,20.25,-2.4,85.8,176.0
1786369320.9421067,-1.374,5.397,7.752,-0.051,0.012,0.012,21.3,-3.6,84.0,176.0
1786369320.942139,-1.35,5.38,7.726,-0.052,0.013,0.019,22.05,-4.05,84.3,179.0
1786369321.1529999,-1.362,5.337,7.767,-0.038,0.01,0.013,21.9,-5.4,84.15,179.0
1786369321.153081,-1.369,5.346,7.731,-0.04,0.014,0.016,21.75,-4.8,83.7,179.0
1786369321.1531198,-1.329,5.32,7.745,-0.028,0.01,0.022,22.35,-4.2,83.85,179.0
1786369321.3512115,-1.324,5.274,7.796,-0.024,0.006,0.008,22.05,-4.35,84.75,180.0
1786369321.351305,-1.365,5.246,7.853,-0.028,0.004,0.006,21.3,-3.6,84.75,180.0
1786369321.3513536,-1.393,5.25,7.824,-0.028,0.007,0.003,21.75,-4.8,83.25,180.0
1786369321.5562916,-1.293,5.313,7.824,-0.02,0.009,-0.001,21.3,-5.1,83.7,161.0
1786369321.5563397,-1.338,5.27,7.846,-0.016,0.015,0.001,23.4,-5.4,83.85,161.0
1786369321.5563598,-1.322,5.294,7.817,-0.012,0.003,0.005,22.5,-3.15,83.25,161.0
1786369321.7608812,-1.3,5.248,7.779,-0.009,0.007,0.012,22.65,-5.7,82.35,180.0
1786369321.760936,-1.243,5.27,7.803,-0.003,0.002,0.014,21.3,-4.05,84.0,180.0
1786369321.7609584,-1.403,5.298,7.846,-0.001,-0.006,0.013,21.6,-5.4,83.85,180.0
1786369321.9658158,-1.283,5.27,7.831,-0.034,0.018,-0.004,20.25,-5.85,84.0,161.0
1786369321.9658756,-1.274,5.332,7.863,-0.032,0.021,-0.002,20.55,-4.8,83.7,161.0
1786369321.9659014,-1.302,5.294,7.817,-0.03,0.019,-0.007,21.6,-4.5,83.4,161.0
1786369322.1701524,-1.283,5.253,7.851,-0.02,-0.003,0.003,21.75,-4.35,84.3,177.0
1786369322.170195,-1.365,5.291,7.839,-0.02,0.006,-0.002,21.6,-4.5,83.1,171.0
1786369322.1702137,-1.377,5.329,7.853,-0.022,0.009,-0.002,21.15,-4.5,83.4,171.0
1786369322.3750122,-1.341,5.356,7.843,-0.032,0.01,-0.003,21.3,-5.1,82.95,171.0
1786369322.3750591,-1.348,5.303,7.836,-0.03,0.006,-0.005,21.75,-5.55,83.25,171.0
1786369322.3750796,-1.319,5.246,7.834,-0.027,0.01,-0.003,21.75,-4.8,84.3,171.0
1786369322.580342,-1.326,5.272,7.822,-0.008,0.006,0.006,21.9,-4.5,83.4,175.0
1786369322.5804026,-1.355,5.334,7.855,-0.012,0.005,0.0,20.55,-5.85,83.7,175.0
1786369322.580429,-1.298,5.322,7.848,-0.019,0.015,0.001,21.6,-6.45,83.4,175.0
1786369322.784623,-1.386,5.289,7.757,-0.013,0.004,0.0,21.9,-4.5,83.4,199.0
1786369322.784676,-1.353,5.291,7.803,-0.011,0.001,-0.005,21.15,-6.15,85.35,199.0
1786369322.7847009,-1.389,5.308,7.865,-0.008,0.003,-0.012,21.75,-4.8,84.0,176.0
1786369322.9899743,-1.317,5.327,7.879,-0.014,0.011,-0.008,22.5,-4.8,83.7,183.0
1786369322.9900239,-1.324,5.329,7.807,-0.017,0.009,0.002,23.1,-5.7,84.15,183.0
1786369322.9900455,-1.288,5.306,7.855,-0.019,0.015,-0.006,21.75,-4.35,84.0,180.0
1786369323.1946335,-1.367,5.262,7.839,-0.016,0.02,-0.01,21.15,-4.95,83.85,159.0
1786369323.1947057,-1.348,5.212,7.805,-0.002,0.015,-0.01,20.55,-4.05,82.95,159.0
1786369323.399586,-1.35,5.308,7.805,-0.032,0.021,-0.011,21.6,-5.7,83.4,173.0
1786369323.3996654,-1.324,5.344,7.827,-0.032,0.02,-0.016,20.55,-5.1,84.3,173.0
1786369323.3996966,-1.329,5.334,7.798,-0.037,0.01,-0.004,20.1,-4.95,82.35,190.0
1786369323.599853,-1.396,5.26,7.798,-0.013,-0.002,-0.001,22.5,-3.6,83.7,176.0
1786369323.603845,-1.384,5.294,7.848,-0.005,0.002,-0.008,21.3,-5.1,83.7,176.0
1786369323.6038888,-1.437,5.308,7.884,-0.014,0.003,-0.007,22.35,-5.4,83.85,176.0
1786369323.8095663,-1.298,5.27,7.865,-0.019,0.008,0.005,20.85,-4.5,83.1,185.0
1786369323.8096538,-1.343,5.325,7.779,-0.025,0.014,0.001,22.65,-5.4,84.6,185.0
1786369323.80969,-1.31,5.351,7.853,-0.028,0.011,0.011,20.25,-4.35,84.75,185.0
1786369324.0141957,-1.298,5.272,7.75,-0.019,0.02,0.014,21.75,-5.1,84.3,176.0
1786369324.0142515,-1.362,5.234,7.762,-0.016,0.015,0.012,21.75,-5.1,83.7,176.0
1786369324.0142763,-1.403,5.325,7.81,-0.018,0.003,0.014,23.1,-4.95,83.4,176.0
1786369324.2160885,-1.348,5.255,7.831,-0.033,0.016,-0.003,21.0,-5.85,82.95,166.0
1786369324.2161672,-1.326,5.272,7.817,-0.03,0.014,0.002,20.25,-5.55,82.95,166.0
1786369324.2273152,-1.381,5.222,7.846,-0.032,0.013,-0.002,21.75,-4.35,84.3,166.0
1786369324.4235232,-1.355,5.236,7.846,-0.014,0.008,-0.006,22.8,-3.15,84.0,178.0
1786369324.4235709,-1.329,5.229,7.829,-0.013,0.006,-0.005,21.75,-4.8,84.3,178.0
1786369324.4235904,-1.329,5.217,7.853,-0.015,0.014,-0.009,21.75,-5.85,83.7,178.0
1786369324.6289876,-1.386,5.296,7.853,-0.02,0.015,0.003,20.55,-5.55,85.05,182.0
1786369324.6290507,-1.396,5.262,7.863,-0.028,0.02,0.004,20.25,-5.55,84.0,182.0
1786369324.6290755,-1.312,5.282,7.882,-0.021,0.028,-0.002,21.75,-3.6,84.3,182.0
1786369324.8333051,-1.403,5.303,7.867,-0.008,0.012,0.002,21.9,-4.95,83.85,175.0
1786369324.8333795,-1.41,5.31,7.848,-0.012,0.019,-0.005,21.3,-5.1,83.25,158.0
1786369324.8334117,-1.367,5.294,7.827,-0.025,0.009,-0.01,22.05,-5.55,82.5,158.0
1786369325.0378478,-1.322,5.246,7.834,-0.022,0.003,-0.002,22.35,-6.15,82.35,182.0
1786369325.2437532,-1.322,5.298,7.877,-0.018,0.013,-0.006,19.8,-5.1,83.25,187.0
1786369325.243804,-1.31,5.231,7.836,-0.017,0.007,-0.006,21.15,-4.5,84.6,179.0
1786369325.243827,-1.302,5.265,7.853,-0.022,0.017,-0.003,21.75,-5.1,84.3,179.0
1786369325.44757,-1.336,5.203,7.884,-0.026,0.016,-0.011,20.55,-5.55,82.95,168.0
1786369325.447652,-1.36,5.195,7.784,-0.012,0.019,-0.01,21.75,-5.85,84.3,160.0
1786369325.447681,-1.36,5.212,7.851,-0.009,0.014,-0.007,22.5,-5.55,83.25,160.0
1786369325.651849,-1.358,5.284,7.872,-0.02,0.016,-0.008,21.75,-4.8,84.3,183.0
1786369325.651904,-1.343,5.262,7.841,-0.027,0.019,-0.005,22.05,-5.1,85.8,183.0
1786369325.6519275,-1.336,5.25,7.817,-0.029,0.012,-0.011,20.4,-4.5,84.15,183.0
1786369325.8570433,-1.36,5.229,7.903,-0.01,0.001,-0.001,21.75,-5.55,85.05,153.0
1786369325.857101,-1.377,5.241,7.819,-0.014,0.002,0.001,22.35,-6.15,82.65,153.0
1786369325.8571234,-1.379,5.265,7.855,-0.014,0.001,-0.005,22.05,-5.1,83.25,179.0
1786369326.0617545,-1.307,5.25,7.81,-0.022,0.007,0.006,22.35,-5.7,84.6,182.0
1786369326.0618098,-1.331,5.274,7.839,-0.015,0.008,0.006,21.75,-4.05,84.75,182.0
1786369326.061834,-1.326,5.241,7.858,-0.017,0.007,0.006,21.75,-4.05,84.75,182.0
1786369326.2668214,-1.326,5.229,7.86,-0.013,-0.002,0.005,22.05,-5.55,84.3,176.0
1786369326.2669017,-1.286,5.272,7.867,-0.016,-0.001,0.004,21.15,-6.9,85.65,176.0
1786369326.2671733,-1.365,5.207,7.853,-0.021,0.009,0.006,21.3,-4.8,84.3,176.0
1786369326.4707913,-1.319,5.195,7.834,-0.02,0.009,0.009,20.85,-4.95,83.85,153.0
1786369326.4708319,-1.259,5.231,7.884,-0.009,0.01,0.007,21.75,-5.1,85.05,153.0
1786369326.4708493,-1.319,5.236,7.822,-0.009,0.013,0.004,21.9,-5.7,83.4,153.0
1786369326.6764295,-1.374,5.241,7.834,-0.016,0.011,-0.01,22.8,-4.35,83.7,189.0
1786369326.676497,-1.336,5.26,7.834,-0.022,0.01,-0.002,21.15,-6.45,83.1,189.0
1786369326.6765177,-1.348,5.234,7.937,-0.014,0.005,-0.001,21.75,-5.85,84.3,189.0
1786369326.8805299,-1.386,5.236,7.8,-0.016,0.005,0.002,21.0,-5.85,84.0,157.0
1786369326.8806107,-1.326,5.274,7.863,-0.012,0.007,-0.002,21.6,-4.2,83.4,157.0
1786369326.8806455,-1.343,5.277,7.875,-0.007,0.005,-0.004,20.4,-4.5,84.15,157.0
1786369327.0853994,-1.305,5.222,7.867,-0.018,0.002,0.011,21.75,-5.55,83.7,170.0
1786369327.0855138,-1.312,5.174,7.927,-0.017,-0.006,0.006,21.15,-4.2,86.1,182.0
1786369327.0855474,-1.247,5.227,7.824,-0.013,0.001,0.004,22.65,-6.45,84.15,182.0
1786369327.293979,-1.341,5.222,7.882,-0.022,0.012,-0.004,21.75,-5.85,84.0,185.0
1786369327.2940173,-1.271,5.243,7.827,-0.028,0.021,-0.007,22.05,-4.35,84.75,185.0
1786369327.2940333,-1.338,5.174,7.896,-0.023,0.012,-0.002,20.85,-4.95,84.6,183.0
1786369327.4952955,-1.29,5.255,7.903,-0.018,0.007,0.004,21.75,-5.85,82.5,187.0
1786369327.495358,-1.326,5.198,7.887,-0.012,0.006,-0.001,22.05,-5.85,83.7,168.0
1786369327.495384,-1.267,5.227,7.853,-0.013,0.014,0.001,21.75,-4.35,84.0,168.0
1786369327.6997874,-1.384,5.243,7.819,-0.012,0.002,-0.003,20.85,-5.4,84.15,154.0
1786369327.6998663,-1.391,5.296,7.877,-0.013,0.006,-0.002,20.55,-5.1,84.3,154.0
1786369327.6999002,-1.324,5.171,7.879,-0.016,0.007,-0.012,22.35,-5.7,84.9,154.0
1786369327.9054615,-1.381,5.289,7.925,-0.026,0.011,0.001,22.8,-4.05,84.0,151.0
1786369327.9055536,-1.353,5.262,7.908,-0.03,0.014,0.003,21.75,-5.55,84.0,151.0
1786369327.9055748,-1.348,5.25,7.887,-0.029,0.021,-0.002,20.4,-6.45,83.85,151.0
1786369328.1097777,-1.353,5.234,7.906,-0.021,0.004,0.001,22.35,-5.4,83.1,187.0
1786369328.1098347,-1.31,5.207,7.865,-0.02,0.002,-0.003,20.25,-3.15,84.75,187.0
1786369328.1098595,-1.377,5.205,7.891,-0.017,0.009,-0.004,22.35,-4.2,82.35,187.0
1786369328.3156796,-1.295,5.224,7.875,-0.009,0.005,-0.015,21.0,-5.55,84.75,197.0
1786369328.3157628,-1.24,5.234,7.913,-0.011,0.006,-0.009,21.15,-5.7,84.9,197.0
1786369328.3157973,-1.29,5.248,7.872,-0.013,0.004,-0.013,22.65,-5.4,84.15,197.0
1786369328.5190883,-1.29,5.241,7.875,-0.019,0.012,-0.002,22.5,-3.15,85.8,175.0
1786369328.5191498,-1.353,5.205,7.836,-0.014,-0.003,0.002,20.1,-5.4,83.4,185.0
1786369328.5191765,-1.324,5.217,7.891,-0.007,-0.001,-0.005,22.35,-4.5,84.15,185.0
1786369328.7252245,-1.319,5.188,7.858,-0.01,0.005,-0.001,22.35,-5.4,83.85,185.0
1786369328.7252831,-1.29,5.274,7.879,-0.015,0.01,-0.006,21.0,-5.55,84.75,185.0
1786369328.7253053,-1.367,5.279,7.863,-0.015,0.014,-0.011,22.05,-5.85,85.05,185.0
1786369328.930802,-1.326,5.243,7.812,-0.013,-0.003,0.007,21.3,-4.05,84.0,173.0
1786369328.930853,-1.3,5.267,7.858,-0.01,-0.003,0.002,20.1,-5.4,84.15,173.0
1786369328.9308739,-1.338,5.262,7.894,-0.022,0.002,0.007,21.6,-5.4,83.1,173.0
1786369329.1315317,-1.283,5.212,7.86,-0.025,0.018,0.011,21.9,-4.95,83.1,152.0
1786369329.1316154,-1.3,5.274,7.865,-0.029,0.016,0.008,21.6,-4.95,86.1,152.0
1786369329.1344104,-1.365,5.203,7.86,-0.028,0.013,0.008,20.55,-4.8,85.05,152.0
1786369329.3397746,-1.3,5.167,7.817,-0.013,0.016,-0.008,21.3,-4.8,84.3,174.0
1786369329.3398175,-1.326,5.231,7.918,-0.019,0.023,-0.002,22.05,-5.85,85.05,173.0
1786369329.3398361,-1.334,5.203,7.872,-0.021,0.013,-0.003,22.8,-4.05,84.75,173.0
1786369329.5492625,-1.314,5.162,7.851,-0.026,0.021,-0.005,22.5,-6.3,84.0,168.0
1786369329.5493505,-1.338,5.231,7.863,-0.023,0.017,-0.006,22.35,-4.5,83.85,168.0
1786369329.5493958,-1.348,5.286,7.851,-0.019,0.013,-0.006,21.0,-6.75,84.75,168.0
1786369329.7482092,-1.367,5.219,7.903,-0.008,-0.001,0.007,21.3,-4.35,84.3,162.0
1786369329.7482846,-1.384,5.133,7.918,-0.012,0.002,-0.001,19.8,-5.55,83.25,162.0
1786369329.7483165,-1.381,5.164,7.915,-0.008,0.007,0.003,21.0,-5.55,83.25,161.0
1786369329.9525137,-1.307,5.188,7.903,-0.024,0.012,0.003,20.85,-6.15,83.1,170.0
1786369329.9525864,-1.24,5.193,7.853,-0.015,0.01,0.011,21.6,-5.4,84.6,170.0
1786369329.952621,-1.29,5.176,7.908,-0.016,0.009,0.01,22.35,-5.7,84.15,173.0
1786369330.1580963,-1.326,5.191,7.829,-0.018,0.012,-0.001,21.75,-6.3,84.0,186.0
1786369330.158157,-1.326,5.227,7.867,-0.01,0.004,-0.006,22.35,-4.2,83.85,186.0
1786369330.1581807,-1.317,5.152,7.891,-0.011,-0.003,0.003,21.15,-6.15,84.6,169.0
1786369330.3620114,-1.295,5.207,7.891,-0.03,0.014,0.001,21.75,-5.55,82.95,177.0
1786369330.3620863,-1.295,5.186,7.855,-0.029,0.012,-0.004,21.6,-3.75,84.9,177.0
1786369330.3621235,-1.274,5.246,7.901,-0.031,0.014,0.003,22.8,-5.1,84.3,171.0
1786369330.5670927,-1.358,5.207,7.922,-0.005,0.002,-0.01,21.15,-4.5,83.4,183.0
1786369330.5671668,-1.343,5.193,7.872,-0.014,0.004,-0.007,22.35,-5.4,86.1,183.0
1786369330.5671966,-1.381,5.181,7.915,-0.014,0.007,-0.014,21.3,-5.55,82.95,183.0
1786369330.7717981,-1.281,5.186,7.879,-0.013,0.012,-0.003,21.9,-5.7,84.6,184.0
1786369330.771859,-1.262,5.198,7.865,-0.012,0.007,-0.003,22.65,-5.7,83.1,184.0
1786369330.7718816,-1.269,5.258,7.867,-0.016,0.004,-0.006,21.0,-5.1,84.0,184.0
1786369330.9786325,-1.31,5.181,7.901,-0.004,-0.005,-0.003,19.8,-4.8,82.95,189.0
1786369330.9786818,-1.255,5.229,7.932,0.005,0.008,-0.007,21.6,-4.95,83.85,189.0
1786369330.9787028,-1.36,5.329,7.863,-0.004,0.008,-0.004,20.85,-5.7,83.4,189.0
1786369331.1793542,-1.314,5.138,7.882,-0.027,0.026,0.001,21.6,-4.5,84.6,174.0
1786369331.38936,-1.353,5.282,7.92,-0.023,0.001,0.001,22.65,-4.95,83.1,177.0
1786369331.3894095,-1.262,5.265,7.875,-0.026,0.003,0.006,21.15,-5.4,83.85,177.0
1786369331.3894315,-1.262,5.334,7.93,-0.029,0.007,-0.001,20.25,-6.3,85.5,177.0
1786369331.591968,-1.369,5.212,7.86,-0.033,0.008,0.013,20.85,-4.5,84.6,185.0
1786369331.5920286,-1.346,5.186,7.915,-0.034,0.013,0.013,22.35,-5.4,84.9,185.0
1786369331.5920537,-1.326,5.171,7.855,-0.026,0.021,0.011,22.05,-5.55,84.75,185.0
1786369331.7959578,-1.403,5.234,7.927,-0.01,0.012,0.002,20.1,-4.95,84.6,166.0
1786369331.796013,-1.324,5.224,7.961,-0.024,0.006,0.006,21.0,-5.1,83.7,91.0
1786369331.7960362,-1.329,5.217,7.91,-0.024,0.007,-0.003,19.8,-4.35,84.3,91.0
1786369332.0007837,-1.346,5.224,7.889,-0.022,0.006,0.002,20.55,-5.1,84.0,180.0
1786369332.0008607,-1.283,5.188,7.855,-0.014,0.002,0.001,20.85,-6.15,83.85,180.0
1786369332.0008955,-1.283,5.217,7.963,-0.015,0.001,0.003,21.6,-5.4,82.05,180.0
1786369332.2053156,-1.326,5.205,7.882,-0.018,0.007,0.002,21.0,-5.85,83.7,184.0
1786369332.2053654,-1.264,5.193,7.939,-0.027,0.011,-0.002,20.1,-5.4,84.9,176.0
1786369332.2053876,-1.286,5.186,7.908,-0.025,0.017,0.0,20.55,-5.55,84.75,176.0
1786369332.4148889,-1.398,5.143,7.827,-0.015,0.014,-0.001,20.55,-4.8,84.3,163.0
1786369332.4149687,-1.343,5.193,7.951,-0.02,0.018,-0.004,20.25,-5.55,83.25,175.0
1786369332.415004,-1.3,5.109,7.908,-0.016,0.013,-0.006,20.25,-5.55,85.05,175.0
1786369332.6147263,-1.322,5.195,7.894,-0.018,0.01,-0.004,21.75,-4.8,84.75,167.0
1786369332.8213909,-1.319,5.198,7.908,-0.018,0.02,-0.001,20.55,-5.55,83.7,156.0
1786369332.8214388,-1.336,5.167,7.877,-0.019,0.019,-0.004,21.0,-5.55,84.75,156.0
1786369332.8214586,-1.422,5.095,7.889,-0.016,0.013,-0.003,21.9,-4.5,83.4,156.0
1786369333.2301621,-1.334,5.116,7.882,-0.015,0.021,-0.007,21.3,-4.35,84.3,171.0
1786369333.2302248,-1.274,5.143,7.882,-0.015,0.012,-0.001,21.15,-3.0,84.15,171.0
1786369333.2302508,-1.331,5.188,7.865,-0.009,0.002,0.001,20.85,-5.4,84.15,171.0
1786369333.4359784,-1.329,5.186,7.915,-0.024,0.022,-0.004,21.9,-5.4,84.15,172.0
1786369333.4360456,-1.307,5.162,7.896,-0.021,0.02,-0.014,20.4,-5.4,83.4,172.0
1786369333.4360743,-1.346,5.152,7.867,-0.018,0.016,-0.01,21.6,-4.95,84.9,172.0
1786369333.639608,-1.276,5.21,7.932,-0.006,0.009,-0.013,21.0,-5.55,85.05,192.0
1786369333.639786,-1.331,5.229,7.934,-0.003,0.007,-0.015,22.5,-5.85,83.7,192.0
1786369333.6398203,-1.422,5.164,7.858,-0.011,0.004,-0.02,21.75,-6.3,84.75,192.0
1786369333.8450198,-1.257,5.274,7.863,-0.01,0.009,-0.006,20.1,-4.95,83.4,177.0
1786369333.8451135,-1.269,5.255,7.853,-0.009,0.013,-0.001,21.75,-4.8,84.0,177.0
1786369333.8451648,-1.355,5.248,7.863,-0.013,0.016,0.002,20.4,-4.95,84.15,177.0
1786369334.0491748,-1.377,5.188,7.877,-0.015,0.016,-0.016,20.25,-5.55,84.0,181.0
1786369334.0492482,-1.398,5.176,7.839,-0.006,0.009,-0.012,22.65,-4.2,84.6,181.0
1786369334.0492795,-1.336,5.203,7.865,0.0,0.002,-0.011,21.6,-4.95,83.4,181.0
1786369334.2533484,-1.35,5.171,7.843,-0.038,0.023,0.012,19.35,-5.7,83.85,191.0
1786369334.2533944,-1.341,5.243,7.803,-0.042,0.01,0.009,21.0,-4.8,84.0,191.0
1786369334.253414,-1.336,5.203,7.853,-0.032,0.007,0.013,22.65,-4.5,84.15,191.0
1786369334.4596443,-1.343,5.219,7.932,-0.013,0.004,0.002,21.15,-5.4,84.15,178.0
1786369334.4596946,-1.396,5.217,7.863,-0.022,0.01,-0.003,21.0,-6.75,84.3,178.0
1786369334.4597166,-1.288,5.215,7.896,-0.029,0.011,-0.005,21.3,-4.8,83.25,170.0
1786369334.6627796,-1.3,5.152,7.855,-0.026,0.013,0.009,21.0,-6.75,84.0,168.0
1786369334.662816,-1.3,5.15,7.867,-0.019,0.008,0.006,20.85,-6.45,84.6,168.0
1786369334.6628318,-1.305,5.195,7.934,-0.02,0.006,0.011,21.3,-5.55,84.0,168.0
1786369334.8683908,-1.317,5.167,7.86,-0.007,0.009,-0.002,21.15,-5.4,84.15,172.0
1786369334.8684459,-1.305,5.234,7.858,-0.011,0.001,0.007,21.0,-5.55,84.75,172.0
1786369334.8684704,-1.341,5.162,7.963,-0.008,-0.007,0.004,23.25,-6.3,83.7,172.0
1786369335.0724163,-1.31,5.174,7.848,-0.022,0.018,-0.01,21.0,-5.55,84.0,180.0
1786369335.2778504,-1.307,5.21,7.887,-0.014,0.002,0.0,20.4,-5.4,84.6,175.0
1786369335.2779257,-1.372,5.205,7.863,-0.009,0.004,-0.01,22.35,-5.7,83.1,175.0
1786369335.2779567,-1.367,5.26,7.872,-0.014,0.005,-0.006,21.6,-6.15,83.85,175.0
