timestamp,ax,ay,az,gx,gy,gz,mx,my,mz,dist
1787130735.2507956,-1.137,9.12,2.291,0.007,0.026,0.03,21.6,23.1,-36.0,295.0
1787130735.250822,-1.164,9.158,2.195,0.011,0.035,0.016,22.65,24.75,-35.55,295.0
1787130735.2508357,-1.065,9.191,2.241,0.023,0.043,0.022,21.9,24.75,-37.5,295.0
1787130735.2508473,-1.116,9.17,2.291,0.01,0.034,0.015,21.75,24.15,-36.9,295.0
1787130735.2508671,-1.154,9.151,2.322,-0.005,0.009,0.013,22.5,24.45,-37.65,295.0
1787130735.250882,-1.168,9.16,2.291,-0.012,0.01,0.012,21.0,24.45,-36.9,295.0
1787130735.2508929,-1.082,9.203,2.136,0.038,0.016,0.011,20.85,24.75,-37.05,448.0
1787130735.2509077,-1.03,9.196,2.217,0.037,0.004,0.003,21.9,25.05,-37.5,448.0
1787130735.250919,-0.948,9.239,2.155,0.023,0.016,0.009,22.05,24.9,-37.65,448.0
1787130735.2509391,-1.128,9.22,2.191,-0.005,0.031,0.011,21.9,24.75,-35.55,448.0
1787130735.2509491,-1.099,9.16,2.251,-0.006,0.03,0.005,21.15,26.55,-38.25,448.0
1787130735.2509594,-1.197,9.249,2.109,-0.011,0.019,-0.005,21.9,25.8,-37.05,448.0
1787130735.2509692,-1.046,9.124,2.181,-0.024,0.004,-0.015,21.15,25.8,-36.75,448.0
1787130735.2509787,-0.982,9.117,2.121,-0.021,0.015,-0.011,22.65,25.05,-36.0,448.0
1787130735.250993,-1.025,9.091,2.124,-0.022,0.014,-0.004,22.65,25.05,-36.0,448.0
1787130735.251002,-1.161,9.143,2.143,-0.006,0.016,0.003,20.1,25.5,-36.75,448.0
1787130735.2510118,-1.113,9.17,2.1,-0.03,0.016,0.002,21.6,25.5,-37.8,448.0
1787130735.2510211,-1.082,9.151,2.126,-0.031,0.001,-0.002,22.05,25.2,-37.65,448.0
1787130735.2510307,-1.013,9.141,2.102,-0.029,0.004,-0.002,21.0,26.1,-37.2,448.0
1787130735.2510402,-1.018,9.218,2.167,-0.012,0.021,-0.007,22.65,24.75,-37.8,448.0
1787130735.2510495,-1.046,9.213,2.145,-0.018,0.028,-0.009,22.35,24.3,-37.05,448.0
1787130735.251059,-1.075,9.148,2.095,-0.012,0.013,0.006,22.35,24.75,-38.25,448.0
1787130735.251068,-1.077,9.115,2.059,-0.026,0.007,-0.003,21.6,25.05,-37.5,448.0
1787130735.2510777,-1.08,9.155,2.102,-0.01,0.011,-0.01,21.75,25.65,-36.6,448.0
1787130735.2510872,-1.061,9.187,2.097,0.007,0.007,0.004,21.9,25.05,-38.25,448.0
1787130735.251096,-1.101,9.206,2.14,-0.024,0.02,-0.01,21.0,25.65,-36.6,448.0
1787130735.2511055,-1.075,9.237,2.095,-0.022,0.024,-0.008,21.3,25.2,-37.95,448.0
1787130735.2511148,-0.96,9.239,2.138,-0.029,0.035,-0.011,21.9,25.05,-37.8,448.0
1787130735.251124,-1.125,9.196,2.014,-0.011,0.015,-0.006,21.9,25.5,-38.25,448.0
1787130735.251133,-1.065,9.232,2.054,-0.011,0.01,-0.007,22.8,25.65,-36.9,448.0
1787130735.2511425,-1.03,9.206,2.081,-0.008,0.011,-0.009,22.05,24.9,-37.65,448.0
1787130735.2511516,-1.051,9.163,1.99,0.007,0.002,0.023,21.9,23.85,-39.3,448.0
1787130735.251161,-1.085,9.167,2.078,0.004,-0.002,0.021,20.55,25.2,-37.65,448.0
1787130735.2511704,-1.14,9.199,2.052,0.003,0.004,0.019,22.8,26.1,-37.2,448.0
1787130735.2511795,-1.068,9.234,2.049,0.009,-0.017,-0.003,22.5,24.45,-36.6,448.0
1787130735.251189,-1.058,9.165,2.035,0.0,-0.013,-0.004,22.5,24.45,-36.6,448.0
1787130735.2511985,-1.068,9.23,2.009,0.006,-0.016,-0.004,22.35,24.75,-37.05,448.0
1787130735.2512078,-1.173,9.261,2.064,0.019,-0.015,-0.068,23.4,26.55,-37.8,566.0
1787130735.2512171,-1.42,8.698,1.604,-0.038,0.094,-0.042,23.25,23.25,-37.95,566.0
1787130735.2512264,-1.334,8.686,1.626,0.046,0.009,0.013,22.8,22.2,-37.95,566.0
1787130735.2512364,-1.319,8.768,1.733,0.122,-0.087,0.072,24.15,23.1,-38.25,566.0
1787130735.2512481,-1.063,9.369,2.095,0.016,-0.107,0.03,23.1,25.8,-36.0,513.0
1787130735.2512577,-1.058,9.445,2.1,-0.018,0.03,-0.032,22.65,25.5,-36.75,536.0
1787130735.2512667,-1.252,9.347,2.112,-0.054,0.131,-0.081,22.5,24.9,-36.6,536.0
1787130735.251276,-1.492,9.153,2.152,-0.137,0.162,-0.161,23.85,24.3,-39.0,536.0
1787130735.2512853,-1.513,9.124,2.093,-0.15,0.164,-0.168,23.85,23.1,-38.25,536.0
1787130735.2512946,-1.451,9.021,2.14,-0.144,0.192,-0.178,22.8,22.95,-38.7,536.0
1787130735.2513041,-1.817,9.036,1.913,-0.005,0.274,-0.064,23.55,22.2,-40.2,536.0
1787130735.2513137,-2.085,8.976,1.982,0.038,0.16,-0.011,24.0,22.2,-40.65,536.0
1787130735.251323,-2.253,8.741,2.045,0.063,-0.007,0.064,24.3,21.45,-41.25,536.0
1787130735.2513359,-1.575,9.464,2.217,0.009,0.087,-0.125,23.25,23.7,-37.65,536.0
1787130735.2513459,-1.46,9.699,2.428,-0.02,0.198,-0.17,24.0,22.2,-38.7,536.0
1787130735.2513552,-1.338,9.713,2.473,-0.079,0.274,-0.21,24.15,21.9,-39.0,536.0
1787130735.2513645,-1.812,8.583,1.776,-0.205,0.422,-0.034,25.65,20.85,-40.05,536.0
1787130735.2513738,-2.035,8.404,1.659,-0.143,0.325,0.041,26.55,21.0,-40.65,536.0
1787130735.251384,-2.188,8.382,1.671,-0.059,0.209,0.11,25.5,21.0,-42.75,536.0
1787130735.2513936,-2.411,8.981,2.217,0.118,-0.161,0.126,25.8,21.75,-41.25,536.0
1787130735.2514029,-2.399,8.942,2.222,0.085,-0.177,0.076,25.2,21.9,-43.05,536.0
1787130735.251412,-2.373,8.988,2.207,0.067,-0.184,0.035,25.8,21.75,-40.95,536.0
1787130735.251421,-1.82,9.218,2.207,-0.079,0.096,-0.197,25.95,20.85,-41.1,536.0
1787130735.2514305,-1.92,9.258,2.219,-0.129,-0.062,-0.087,26.25,22.2,-42.0,536.0
1787130735.2514396,-1.968,8.768,2.344,-0.102,0.109,-0.01,24.45,21.6,-40.8,536.0
1787130735.2514486,-1.872,8.844,2.399,-0.106,0.12,0.004,26.25,20.25,-40.95,536.0
1787130735.251458,-1.939,8.914,2.459,-0.122,0.138,0.017,25.8,20.25,-41.25,536.0
1787130735.2514699,-2.076,8.59,2.251,-0.171,0.254,-0.139,25.8,20.25,-42.45,536.0
1787130735.2514791,-2.145,8.638,2.164,-0.147,0.329,-0.164,26.55,18.3,-41.7,536.0
1787130735.2514882,-2.313,8.631,2.143,-0.1,0.363,-0.159,25.8,19.5,-42.75,536.0
1787130735.2514975,-2.574,9.096,2.411,0.145,-0.28,0.295,26.55,20.25,-43.2,536.0
1787130735.2515063,-2.66,9.103,2.406,0.145,-0.35,0.287,28.05,19.5,-43.5,536.0
1787130735.2515156,-2.679,9.141,2.193,0.15,-0.418,0.279,27.45,20.4,-42.6,536.0
1787130735.251525,-1.836,9.45,2.512,0.066,-0.543,0.022,25.5,22.95,-40.65,536.0
1787130735.251534,-1.583,9.57,2.44,-0.005,-0.462,-0.037,24.9,23.1,-40.35,536.0
1787130735.2515433,-1.355,9.649,2.43,-0.074,-0.336,-0.103,24.3,22.2,-40.2,536.0
1787130735.2515547,-1.226,8.942,2.399,-0.092,-0.252,0.173,22.65,21.6,-36.3,536.0
1787130735.2515643,-1.209,8.887,2.337,-0.096,-0.238,0.204,22.05,23.25,-37.2,536.0
1787130735.2515738,-1.233,8.792,2.389,-0.106,-0.182,0.223,23.25,23.25,-37.95,536.0
1787130735.2515836,-1.216,8.899,2.346,-0.111,0.161,0.029,22.65,23.55,-37.8,536.0
1787130735.2515926,-1.211,8.847,2.413,-0.1,0.252,-0.004,23.55,22.5,-37.2,536.0
1787130735.251602,-1.288,8.763,2.514,-0.084,0.283,-0.021,24.15,21.9,-36.75,536.0
1787130735.251611,-1.865,9.084,2.67,0.015,0.329,-0.213,24.9,20.4,-39.6,536.0
1787130735.25162,-1.891,9.129,2.626,-0.021,0.346,-0.234,24.45,22.8,-38.55,536.0
1787130735.2516296,-1.992,9.064,2.794,-0.038,0.337,-0.259,25.2,21.6,-39.6,536.0
1787130735.251639,-2.914,9.527,3.915,-0.512,-0.913,-0.166,25.05,19.5,-38.4,536.0
1787130735.2516482,-1.932,8.973,5.531,-0.694,-0.461,-0.486,16.35,12.3,-27.15,174.0
1787130735.2516577,-2.253,9.033,5.385,-0.801,-0.414,-0.484,15.6,10.8,-24.9,174.0
1787130735.251667,-2.174,8.847,4.884,-0.923,-0.402,-0.422,14.1,10.05,-23.85,174.0
1787130735.2516763,-1.013,7.47,2.691,-1.371,0.129,-0.718,13.35,-5.7,-25.65,127.0
1787130735.2516856,-2.016,7.056,3.108,-1.285,0.211,-0.704,12.6,-6.45,-27.15,127.0
1787130735.2516954,-2.069,6.694,3.512,-1.242,0.12,-0.807,11.7,-10.5,-29.55,127.0
1787130735.251705,-3.268,6.261,6.091,-1.001,-0.311,-0.401,8.85,-19.65,-35.25,200.0
1787130735.2517142,-3.146,5.624,6.352,-0.976,-0.22,-0.434,8.85,-20.1,-36.3,200.0
1787130735.251724,-2.782,5.306,6.5,-0.905,-0.045,-0.436,7.8,-21.15,-38.25,200.0
1787130735.2517335,-5.119,1.729,8.435,-0.218,-0.094,-0.643,6.0,-25.65,-40.65,343.0
1787130735.2517426,-5.188,1.676,8.499,-0.103,-0.098,-0.708,4.95,-26.85,-42.0,343.0
1787130735.251752,-5.224,1.647,8.432,-0.035,-0.067,-0.802,5.4,-25.65,-42.45,343.0
1787130735.2517612,-4.008,1.923,8.059,0.443,-0.79,-1.318,-8.1,-27.45,-40.05,478.0
1787130735.2517707,-4.219,2.591,8.116,0.462,-1.005,-1.222,-8.25,-26.1,-39.15,478.0
1787130735.25178,-4.197,2.909,8.236,0.409,-1.231,-1.109,-9.45,-26.85,-38.4,478.0
1787130735.2517893,-2.234,3.706,7.568,0.422,-0.234,-0.775,-20.25,-22.95,-34.35,375.0
1787130735.2517986,-2.1,3.78,7.427,0.478,-0.253,-0.609,-20.85,-25.05,-34.5,375.0
1787130735.2518477,-2.413,4.125,7.417,0.49,-0.452,-0.354,-22.35,-23.55,-33.0,375.0
1787130735.251864,-3.943,3.256,7.693,-0.04,0.488,0.465,-15.9,-22.35,-30.45,660.0
1787130735.251874,-3.84,4.843,8.464,-0.038,0.208,0.063,-10.2,-19.5,-26.25,897.0
1787130735.2518835,-3.9,4.609,8.396,-0.104,0.209,0.07,-9.3,-18.9,-27.15,917.0
1787130735.2518928,-3.948,4.606,8.097,-0.093,0.164,0.093,-7.35,-20.1,-27.45,917.0
1787130735.2519026,-3.836,4.554,7.547,0.049,-0.04,0.02,-6.6,-20.85,-26.1,874.0
1787130735.2519119,-3.776,4.515,7.606,0.042,-0.003,0.031,-8.85,-19.2,-26.1,840.0
1787130735.251921,-3.733,4.317,7.532,0.029,0.006,0.023,-7.95,-19.5,-25.8,840.0
1787130735.25193,-3.864,4.353,7.721,0.158,-0.154,-0.096,-8.7,-17.85,-26.55,786.0
1787130735.2519393,-4.041,4.559,7.779,0.176,-0.205,-0.086,-8.85,-19.65,-25.65,786.0
1787130735.2519486,-3.972,4.48,7.676,0.195,-0.218,-0.064,-8.85,-18.9,-25.35,323.0
1787130735.2519586,-3.476,5.215,7.266,0.106,-0.044,0.009,-9.6,-16.95,-23.55,212.0
1787130735.251968,-3.522,5.2,7.226,0.068,-0.011,0.021,-10.5,-15.9,-24.45,212.0
1787130735.2519772,-3.78,5.301,7.269,0.042,-0.012,0.06,-11.25,-16.35,-24.0,192.0
1787130735.2519865,-3.4,4.882,7.446,-0.115,0.08,0.004,-9.45,-15.9,-24.0,183.0
1787130735.2519956,-3.591,4.848,7.568,-0.103,0.081,0.011,-10.8,-18.45,-23.55,183.0
1787130735.252005,-3.685,4.769,7.539,-0.102,0.081,0.007,-9.6,-15.75,-24.9,183.0
1787130735.2520144,-3.371,4.853,7.412,-0.001,-0.008,-0.051,-10.95,-16.8,-24.0,193.0
1787130735.2520237,-3.364,4.918,7.307,-0.009,0.012,-0.045,-10.8,-16.2,-23.55,193.0
1787130735.252033,-3.567,5.016,7.389,-0.013,0.053,-0.044,-11.1,-16.5,-23.85,193.0
1787130735.2520423,-4.01,4.755,7.558,-0.162,0.203,-0.072,-8.7,-17.55,-24.75,197.0
1787130735.2520545,-3.982,4.654,7.8,-0.077,0.199,-0.08,-9.6,-16.95,-24.6,197.0
1787130735.2520635,-4.197,4.788,8.133,-0.026,0.135,-0.106,-9.3,-17.4,-24.15,197.0
1787130735.2520728,-3.946,4.707,9.677,-1.011,-0.326,-0.215,-11.1,-18.15,-23.85,207.0
1787130735.252082,-4.69,2.231,5.102,0.358,-0.417,-0.415,-17.1,-28.5,-35.55,670.0
1787130735.2520914,-4.542,2.547,6.359,0.698,-0.465,-0.37,-18.15,-27.45,-34.5,670.0
1787130735.2521007,-4.439,3.136,7.293,1.092,-0.691,-0.3,-18.3,-27.9,-32.1,670.0
1787130735.2521124,-4.013,4.752,8.854,0.172,0.356,0.1,-17.4,-20.85,-25.35,160.0
1787130735.2521222,-3.967,4.638,8.655,0.137,0.16,0.121,-18.75,-19.5,-25.5,160.0
1787130735.2521317,-3.675,4.609,8.59,0.092,0.057,0.144,-18.0,-21.0,-24.45,160.0
1787130735.2521405,-3.575,4.329,8.188,-0.185,0.062,0.192,-16.65,-18.9,-25.35,186.0
1787130735.2521498,-3.828,4.3,8.028,-0.237,0.098,0.232,-16.35,-19.65,-26.1,186.0
1787130735.2521589,-3.716,4.058,7.865,-0.242,0.1,0.26,-15.45,-19.8,-27.75,186.0
1787130735.252168,-4.489,3.388,7.64,0.123,-0.065,0.026,-15.0,-19.8,-27.3,234.0
1787130735.2521772,-4.774,3.962,8.325,0.094,-0.118,-0.001,-13.65,-20.4,-25.35,234.0
1787130735.2521863,-4.319,4.037,8.473,0.068,-0.212,0.007,-15.9,-20.4,-25.65,234.0
1787130735.2521954,-3.56,4.539,7.503,-0.023,-0.089,0.043,-14.1,-18.15,-26.1,205.0
1787130735.2522042,-3.512,4.602,7.585,-0.042,-0.073,0.04,-15.15,-18.9,-26.1,187.0
1787130735.2522137,-3.469,4.597,7.558,-0.069,-0.044,0.031,-15.15,-20.4,-26.1,187.0
1787130735.2522233,-3.587,4.092,8.006,-0.039,0.029,-0.023,-15.45,-20.55,-27.3,207.0
1787130735.2522326,-3.632,4.135,7.954,-0.038,0.022,-0.018,-15.9,-19.2,-27.45,207.0
1787130735.2522414,-3.764,4.087,7.956,-0.011,0.013,-0.013,-15.6,-20.1,-26.4,212.0
1787130735.2522507,-3.587,4.166,7.898,0.007,0.007,-0.033,-15.15,-19.65,-26.1,201.0
1787130735.2522597,-3.754,4.202,7.913,0.015,0.0,-0.024,-16.5,-17.85,-27.3,201.0
1787130735.252269,-3.747,4.183,7.937,0.028,-0.019,-0.032,-16.2,-19.8,-25.8,203.0
1787130735.3216927,-3.369,4.391,7.784,0.045,0.04,-0.008,-17.7,-19.05,-26.55,208.0
1787130735.5284774,-3.955,4.13,7.994,0.024,0.059,-0.026,-15.75,-21.75,-26.55,185.0
1787130735.528506,-3.929,4.262,7.906,0.042,0.025,-0.02,-16.2,-19.05,-26.25,185.0
1787130735.5285177,-3.934,4.25,7.803,0.051,-0.015,-0.026,-15.45,-20.25,-25.8,185.0
1787130735.7341645,-3.8,4.413,7.657,0.032,-0.053,-0.004,-17.7,-18.3,-25.2,165.0
1787130735.7342007,-3.74,4.415,7.58,0.026,-0.059,0.014,-16.35,-18.45,-25.35,165.0
1787130735.734208,-3.62,4.403,7.57,0.021,-0.049,0.021,-16.65,-17.7,-25.35,165.0
1787130735.9381576,-3.259,4.444,7.87,0.009,0.003,0.089,-14.4,-18.15,-25.35,172.0
1787130735.9381824,-3.323,4.626,7.925,0.055,0.024,0.097,-15.0,-19.05,-25.2,172.0
1787130735.938193,-3.472,4.875,7.927,0.056,0.021,0.066,-15.45,-20.25,-25.2,172.0
1787130736.1435359,-5.322,5.071,10.001,0.32,0.541,-0.503,-14.1,-17.7,-23.55,154.0
1787130736.1435611,-6.268,5.176,10.685,0.195,0.619,-0.738,-13.5,-18.3,-24.0,154.0
1787130736.1435726,-6.838,4.975,10.69,0.014,0.635,-1.042,-13.5,-17.55,-23.25,154.0
1787130736.3478653,-5.669,0.828,7.757,-0.56,-1.896,-1.924,-26.4,-17.7,-30.15,1125.0
1787130736.3478901,-5.274,0.599,7.489,-0.545,-1.991,-1.958,-29.7,-19.2,-32.25,1125.0
1787130736.3479013,-4.317,0.33,7.058,-0.462,-1.969,-1.944,-32.55,-16.8,-33.9,1125.0
1787130736.5528824,2.184,-0.661,6.309,0.396,0.603,-1.393,-43.65,-8.7,-41.25,1433.0
1787130736.5529075,-3.311,0.522,6.139,0.962,0.469,-1.42,-42.6,-5.55,-37.95,1556.0
1787130736.5529187,-3.713,1.705,6.869,1.035,0.302,-1.455,-42.6,-3.6,-37.95,1556.0
1787130736.7575588,-7.389,4.075,4.719,1.621,0.294,-0.014,-32.4,20.1,-19.05,728.0
1787130736.757586,-5.923,4.24,4.915,1.482,-0.041,0.098,-31.35,22.5,-19.95,728.0
1787130736.7575974,-6.012,4.195,5.143,1.067,-0.425,0.218,-31.95,21.6,-19.05,728.0
1787130736.9614046,-1.798,4.046,7.707,-0.968,-1.875,0.759,-39.0,21.15,-27.45,1090.0
1787130736.96143,-1.733,3.68,6.606,-1.384,-2.346,1.03,-41.85,17.85,-31.05,1090.0
1787130737.1674721,0.424,3.601,11.528,-0.417,-0.687,0.943,-51.75,-2.25,-62.1,1959.0
1787130737.1674979,0.713,3.39,12.201,-0.55,-0.115,0.813,-51.6,-1.65,-63.45,1959.0
1787130737.1675096,0.572,3.122,12.194,-0.685,0.433,0.575,-51.3,-1.05,-63.15,1959.0
1787130737.3719208,1.08,-0.733,9.222,-0.537,0.479,-0.654,-50.85,-2.1,-63.75,1959.0
1787130737.371947,1.753,-0.376,9.28,-0.52,0.516,-0.579,-50.25,-2.25,-63.6,1959.0
1787130737.3719585,1.769,-0.141,8.916,-0.357,0.366,-0.736,-51.0,-1.5,-61.95,1959.0
1787130737.5770805,0.438,0.543,8.866,-0.17,0.3,-0.619,-51.75,-2.7,-61.8,1959.0
1787130737.5771043,1.935,2.308,8.751,-0.586,0.447,-0.576,-52.8,0.0,-62.85,1959.0
1787130737.5771124,0.63,-0.661,9.043,-0.661,0.249,-0.255,-51.6,-1.35,-63.45,1959.0
1787130737.7812257,1.769,-1.628,9.313,0.583,0.039,0.551,-53.1,-0.9,-63.45,171.0
1787130737.7812502,2.346,-1.64,9.261,0.714,0.1,0.585,-52.5,-3.45,-62.1,171.0
1787130737.7812617,2.303,-1.147,8.921,0.689,0.177,0.247,-53.25,-1.5,-63.6,171.0
1787130737.9861388,0.893,0.223,9.457,0.006,0.091,-0.274,-52.65,0.45,-56.1,1983.0
1787130737.9861634,2.777,0.871,12.359,-0.247,1.415,-0.656,-53.1,0.45,-53.85,1983.0
1787130737.9861743,-3.694,0.69,12.258,-0.175,0.551,-0.593,-53.25,1.8,-52.5,1983.0
1787130738.191414,0.622,1.039,9.488,0.354,0.106,-0.659,-55.65,3.6,-59.7,1864.0
1787130738.1914396,0.062,1.415,10.238,0.185,-0.001,-0.578,-55.05,5.7,-56.55,1864.0
1787130738.1914508,0.493,1.647,10.386,0.023,-0.203,-0.427,-55.95,4.05,-57.9,1864.0
1787130738.3958926,-0.431,0.608,9.45,-0.248,0.461,-0.252,-54.75,5.7,-60.6,1793.0
1787130738.3959181,-0.974,0.35,9.79,-0.21,0.239,-0.17,-55.2,5.55,-60.75,1793.0
1787130738.3959296,-0.941,0.397,10.254,-0.142,0.093,-0.107,-56.7,7.8,-59.4,1793.0
1787130738.6002839,1.513,-0.002,9.369,-0.27,0.197,-0.181,-55.95,6.75,-63.0,1874.0
1787130738.8058324,0.998,-0.826,10.039,0.025,0.266,0.126,-55.2,6.3,-59.4,1927.0
1787130738.8058667,0.575,-0.646,10.199,-0.039,0.189,0.18,-54.75,6.15,-59.55,1920.0
1787130738.8058794,0.886,-1.113,9.962,-0.052,0.288,0.169,-53.25,6.45,-60.6,1920.0
1787130739.0102465,0.014,-0.742,9.553,0.072,0.411,-0.003,-53.1,6.75,-58.2,1966.0
1787130739.0102754,-0.366,-0.493,9.632,0.123,0.374,0.113,-53.7,5.1,-56.1,1948.0
1787130739.0102863,-0.646,-0.541,9.953,0.114,0.295,0.172,-53.1,4.8,-58.95,1948.0
1787130739.215174,-1.305,-0.254,9.673,0.013,0.102,0.044,-54.15,4.8,-53.1,1969.0
1787130739.2151945,-1.401,-0.232,9.673,0.002,0.036,0.052,-51.75,3.75,-54.75,2031.0
1787130739.2152011,-1.132,-0.247,9.718,-0.003,-0.009,0.072,-52.05,4.95,-54.45,2031.0
1787130739.4197934,-1.089,-0.263,9.725,-0.007,0.028,0.015,-51.0,3.45,-53.7,2002.0
1787130739.4198182,-1.087,-0.225,9.704,0.021,0.017,0.019,-52.65,4.05,-55.35,2010.0
1787130739.41983,-1.034,-0.213,9.73,0.023,0.01,0.022,-51.15,4.05,-55.35,2010.0
1787130739.6252975,-0.716,-0.215,9.471,0.004,-0.042,0.005,-51.9,4.8,-56.1,2006.0
1787130739.6253235,-0.455,-0.297,9.433,-0.023,0.027,-0.028,-52.05,3.0,-56.25,1998.0
1787130739.6253347,-0.584,-0.201,9.378,0.028,0.248,-0.111,-53.25,3.75,-53.7,1998.0
1787130739.829229,-1.178,0.184,9.907,0.032,0.291,-0.073,-51.6,3.15,-52.8,2013.0
1787130739.8292546,-1.48,0.113,9.948,-0.016,0.239,-0.082,-51.15,4.8,-54.15,2013.0
1787130739.8292656,-1.709,-0.007,9.823,-0.034,0.131,-0.061,-50.4,4.8,-53.1,2013.0
1787130740.035787,-2.282,-1.243,8.669,0.194,0.78,-0.174,-49.5,3.75,-52.2,1964.0
1787130740.0358121,-2.782,-0.56,9.1,-0.006,0.498,-0.176,-48.9,4.8,-50.55,1964.0
1787130740.2403615,-1.856,-0.22,9.62,-0.021,-0.01,0.011,-49.05,4.5,-50.4,1919.0
1787130740.2403867,-1.707,-0.172,9.706,-0.006,0.03,-0.009,-49.65,5.55,-51.6,1919.0
1787130740.2403982,-1.729,-0.086,9.799,-0.018,0.03,-0.003,-50.1,5.1,-51.3,1919.0
1787130740.4437306,-1.872,-0.294,9.608,-0.036,0.061,-0.007,-48.75,6.15,-50.7,1944.0
1787130740.443755,-1.808,-0.259,9.572,-0.04,0.056,-0.008,-49.8,6.9,-50.4,1944.0
1787130740.443766,-1.908,-0.302,9.579,-0.039,0.065,0.002,-50.25,4.95,-51.45,1944.0
1787130740.6494067,-2.03,-0.23,9.505,-0.028,-0.013,0.029,-48.75,5.4,-49.95,1982.0
1787130740.6494327,-1.975,-0.23,9.548,-0.035,-0.011,0.021,-48.75,3.75,-51.45,1982.0
1787130740.6494436,-1.762,-0.283,9.649,-0.01,-0.015,0.024,-48.3,4.95,-50.4,1982.0
1787130740.8541126,-1.812,-0.158,9.584,-0.004,0.011,0.0,-48.6,4.8,-50.85,1964.0
1787130740.8541386,-2.03,-0.199,9.589,-0.019,-0.006,-0.013,-48.0,5.4,-51.75,1964.0
1787130740.8541498,-1.863,-0.328,9.488,-0.027,0.005,0.001,-48.75,5.4,-51.45,1964.0
1787130741.0582945,-2.047,-0.249,9.531,-0.019,0.03,-0.006,-49.05,4.95,-49.95,1925.0
1787130741.0583205,-1.997,-0.294,9.534,-0.036,0.022,0.004,-49.5,5.4,-49.2,1925.0
1787130741.0583324,-1.98,-0.309,9.548,-0.026,0.019,-0.002,-49.5,5.4,-51.75,1925.0
1787130741.2635207,-1.918,-0.321,9.486,-0.018,0.009,-0.003,-48.15,5.1,-49.8,1966.0
1787130741.2635465,-1.961,-0.275,9.538,-0.019,0.004,-0.005,-48.15,4.05,-52.35,1966.0
1787130741.2635574,-2.002,-0.299,9.529,-0.029,0.004,-0.012,-49.8,4.2,-51.0,1966.0
1787130741.4677327,-1.935,-0.261,9.543,-0.023,0.003,-0.006,-50.55,3.45,-51.75,1944.0
1787130741.4677594,-2.014,-0.333,9.517,-0.024,0.007,0.003,-48.15,5.1,-51.6,1944.0
1787130741.467771,-1.853,-0.302,9.555,-0.021,0.011,-0.002,-50.4,4.8,-51.3,1936.0
1787130741.673589,-1.882,-0.268,9.467,-0.02,-0.012,0.017,-49.65,4.05,-51.6,1923.0
1787130741.673613,-1.688,-0.287,9.527,-0.047,0.048,0.029,-50.85,3.15,-50.85,1936.0
1787130741.673624,-1.851,-0.299,9.582,-0.029,0.088,0.031,-48.75,4.2,-52.2,1936.0
1787130741.8759933,-1.966,-0.438,9.51,-0.031,0.062,-0.007,-49.8,4.95,-50.7,1933.0
1787130742.082861,-2.054,-0.235,9.562,-0.004,-0.019,0.015,-49.35,3.15,-52.35,1878.0
1787130742.082887,-1.978,-0.244,9.309,-0.015,-0.051,0.019,-50.1,5.1,-50.85,1878.0
1787130742.082898,-1.877,-0.366,9.479,-0.016,-0.02,0.026,-48.9,5.1,-53.1,1878.0
1787130742.2874725,-2.109,-0.206,9.553,-0.016,-0.055,0.007,-48.15,4.05,-51.3,1867.0
1787130742.2874973,-2.009,-0.158,9.62,-0.02,-0.066,0.011,-48.75,3.0,-51.45,1867.0
1787130742.2875085,-1.805,-0.28,9.519,-0.036,-0.023,-0.015,-48.3,4.5,-51.75,1867.0
1787130742.4921036,-1.664,-0.371,9.577,-0.005,0.01,0.02,-50.4,5.1,-50.55,1902.0
1787130742.4921286,-1.803,-0.254,9.572,0.015,0.051,0.002,-48.6,5.1,-51.3,1902.0
1787130742.4921398,-1.994,-0.117,9.519,0.001,0.055,-0.009,-48.9,4.35,-52.05,1902.0
1787130742.6972249,-1.879,-0.407,9.543,-0.056,0.079,-0.015,-48.75,4.2,-50.7,1892.0
1787130742.6972501,-1.994,-0.414,9.615,-0.04,0.091,0.003,-48.9,4.35,-51.3,1892.0
1787130742.697261,-2.265,-0.29,9.646,-0.016,0.068,0.01,-48.75,3.45,-50.4,1892.0
1787130742.9021492,-1.846,-0.187,9.503,0.002,0.019,0.008,-49.8,5.4,-52.2,1900.0
1787130742.9021738,-1.93,-0.211,9.57,0.0,0.043,-0.001,-49.35,5.1,-50.1,1900.0
1787130742.9021802,-2.09,-0.156,9.55,-0.004,0.022,0.011,-48.9,4.8,-51.6,1900.0
1787130743.1061304,-1.774,-0.287,9.529,-0.046,0.032,-0.012,-49.8,4.95,-51.0,1916.0
1787130743.106155,-1.748,-0.304,9.534,-0.042,0.064,-0.015,-48.75,5.7,-52.2,1916.0
1787130743.1061707,-1.863,-0.275,9.538,-0.036,0.093,-0.027,-49.35,4.05,-50.85,1916.0
1787130743.3110936,-1.968,-0.227,9.558,-0.032,-0.019,0.006,-48.6,3.6,-51.3,1927.0
1787130743.311118,-1.956,-0.139,9.591,-0.019,-0.01,-0.007,-49.35,3.15,-51.6,1927.0
1787130743.3111289,-1.985,-0.22,9.541,-0.016,-0.012,-0.026,-48.9,4.05,-50.55,1927.0
1787130743.5159304,-2.224,-0.244,9.553,-0.018,0.005,-0.012,-48.6,2.85,-49.8,1886.0
1787130743.5159562,-2.035,-0.302,9.603,-0.023,-0.015,-0.004,-50.1,3.6,-51.3,1886.0
1787130743.721152,-2.406,-0.175,9.412,-0.021,0.016,-0.033,-49.05,4.2,-51.0,1885.0
1787130743.7211776,-2.37,-0.333,9.483,-0.023,-0.028,-0.031,-48.15,5.55,-49.8,1885.0
1787130743.721189,-2.203,-0.347,9.546,-0.023,-0.06,0.001,-48.9,4.35,-50.85,1884.0
1787130743.92562,-2.088,-0.314,9.505,-0.022,0.049,-0.022,-51.75,3.75,-49.95,1842.0
1787130743.9256437,-2.14,-0.362,9.546,-0.032,0.039,-0.003,-49.65,5.55,-51.6,1842.0
1787130743.9256551,-2.105,-0.318,9.531,-0.038,0.03,-0.009,-49.8,4.5,-50.4,1873.0
1787130744.1302874,-2.042,-0.347,9.457,-0.02,0.047,0.001,-49.35,4.05,-50.55,1887.0
1787130744.130313,-2.025,-0.409,9.596,-0.013,0.046,0.001,-48.0,3.75,-49.95,1887.0
1787130744.1303244,-2.411,-0.261,9.603,0.0,-0.007,0.003,-48.75,3.75,-50.4,1882.0
1787130744.3376184,-1.803,-0.311,9.495,-0.043,0.032,-0.004,-49.05,4.5,-50.7,1887.0
1787130744.3376446,-2.164,-0.28,9.469,-0.061,0.061,-0.019,-48.6,2.85,-49.8,1887.0
1787130744.3376558,-2.358,-0.366,9.543,-0.028,0.062,-0.015,-47.1,2.4,-51.3,1903.0
1787130744.5406141,-2.167,-0.409,9.507,0.0,-0.026,0.003,-49.5,3.0,-50.4,1938.0
1787130744.5406392,-2.04,-0.381,9.476,0.003,-0.011,0.012,-47.85,2.85,-49.8,1938.0
1787130744.5406508,-2.042,-0.388,9.522,-0.003,0.004,0.002,-48.75,4.5,-51.45,1929.0
1787130744.744485,-2.176,-0.405,9.512,-0.012,0.032,0.003,-49.05,4.2,-50.4,1912.0
1787130744.74451,-2.234,-0.34,9.474,-0.026,0.019,0.011,-49.05,2.25,-49.95,1912.0
1787130744.7445211,-2.193,-0.335,9.455,-0.03,0.01,0.014,-48.75,4.2,-52.2,1882.0
1787130744.9481528,-2.057,-0.414,9.546,-0.013,-0.004,-0.012,-48.75,2.7,-49.2,1928.0
1787130745.1536272,-2.069,-0.39,9.519,-0.001,0.01,0.0,-48.6,4.05,-51.3,1868.0
1787130745.1536539,-2.198,-0.33,9.493,-0.011,0.01,-0.003,-48.6,4.05,-50.55,1868.0
1787130745.3596697,-2.176,-0.321,9.479,-0.019,0.024,-0.007,-48.3,4.2,-51.75,1861.0
1787130745.3596954,-2.169,-0.347,9.483,-0.022,0.011,-0.009,-49.35,4.05,-50.85,1867.0
1787130745.3597064,-2.164,-0.448,9.524,-0.012,0.007,-0.01,-48.15,2.1,-49.35,1867.0
1787130745.5641787,-2.061,-0.342,9.498,-0.005,0.002,-0.016,-48.15,3.15,-51.3,1917.0
1787130745.5642042,-2.03,-0.412,9.476,-0.003,0.018,-0.017,-48.75,5.4,-50.7,1906.0
1787130745.5642157,-2.16,-0.393,9.5,-0.011,0.021,-0.005,-48.15,3.6,-49.8,1906.0
1787130745.7692747,-2.116,-0.388,9.457,-0.015,0.016,-0.001,-50.25,3.45,-50.4,1915.0
1787130745.7692997,-2.167,-0.316,9.507,-0.016,0.027,-0.004,-48.3,2.7,-51.0,1915.0
1787130745.769311,-2.195,-0.311,9.541,-0.02,0.019,-0.003,-47.7,3.75,-51.45,1915.0
1787130745.9740007,-2.176,-0.402,9.498,-0.019,-0.018,-0.006,-47.4,4.8,-50.85,1811.0
1787130745.974206,-1.958,-0.481,9.481,-0.008,-0.011,-0.007,-49.05,3.75,-50.7,1867.0
1787130745.9742153,-2.176,-0.397,9.527,-0.012,0.006,-0.017,-48.75,3.45,-50.4,1867.0
1787130746.1783485,-2.006,-0.424,9.661,0.011,-0.032,-0.071,-48.9,4.35,-49.8,1891.0
1787130746.1783748,-1.908,-0.419,9.476,-0.013,-0.002,-0.057,-50.25,3.75,-50.4,1886.0
1787130746.178386,-1.736,-0.409,9.488,-0.051,0.007,-0.022,-50.1,4.8,-50.85,1886.0
1787130746.3832524,-2.241,-0.299,9.464,-0.03,-0.003,0.009,-47.85,4.35,-50.85,1897.0
1787130746.3832774,-2.143,-0.316,9.531,-0.021,-0.016,-0.004,-49.5,4.5,-50.7,1887.0
1787130746.3832886,-2.049,-0.402,9.5,-0.019,-0.019,0.0,-48.6,3.15,-50.85,1887.0
1787130746.5878909,-2.121,-0.481,9.512,-0.034,0.053,0.005,-50.25,5.4,-50.7,1886.0
1787130746.5879736,-2.263,-0.373,9.51,-0.039,0.039,0.018,-49.05,5.4,-51.0,1886.0
1787130746.5882034,-2.128,-0.381,9.804,0.002,0.061,0.013,-49.35,3.15,-50.85,1862.0
1787130746.792165,-2.162,-0.436,9.773,-0.016,0.039,-0.012,-48.9,4.35,-49.35,1889.0
1787130746.7921894,-2.37,-0.278,9.498,-0.016,0.013,-0.024,-50.55,4.5,-50.4,1899.0
1787130746.997524,-2.181,-0.335,9.565,0.016,0.039,-0.008,-49.05,3.0,-49.65,1930.0
1787130746.9975488,-2.342,-0.366,9.395,-0.003,0.018,-0.022,-49.5,3.0,-50.4,1930.0
1787130746.99756,-2.006,-0.472,9.491,-0.003,0.064,-0.002,-49.5,5.4,-50.7,1930.0
1787130747.2022817,-2.251,-0.484,9.527,-0.059,0.013,0.021,-48.75,3.45,-50.4,1870.0
1787130747.202306,-2.274,-0.457,9.527,-0.052,0.009,0.027,-48.3,3.45,-49.2,1870.0
1787130747.202317,-2.219,-0.527,9.527,-0.038,0.013,0.027,-49.5,3.0,-50.4,1870.0
1787130747.4076533,-2.346,-0.615,9.524,-0.005,0.006,-0.025,-49.35,3.6,-51.3,1910.0
1787130747.4076793,-2.248,-0.56,9.632,0.006,0.02,-0.021,-49.8,3.0,-50.7,1910.0
1787130747.4076905,-2.229,-0.553,9.459,0.01,0.011,-0.021,-48.3,3.75,-49.65,1910.0
1787130747.6118677,-2.397,-0.543,9.469,-0.014,0.002,-0.018,-49.5,3.0,-49.2,1849.0
1787130747.611905,-2.303,-0.522,9.515,-0.007,0.001,-0.007,-49.05,3.45,-49.95,1849.0
1787130747.6119173,-2.186,-0.517,9.512,-0.003,0.005,-0.017,-48.9,3.6,-48.3,1849.0
1787130747.8170702,-2.176,-0.505,9.397,-0.036,0.024,0.002,-48.15,4.8,-48.75,1883.0
1787130747.8170958,-2.291,-0.347,9.448,-0.03,0.016,0.017,-49.8,6.15,-49.95,1883.0
1787130747.8171072,-2.406,-0.476,9.507,-0.039,0.029,0.012,-50.4,3.6,-49.8,1883.0
1787130748.0216835,-2.342,-0.601,9.531,-0.015,0.013,0.008,-48.9,3.15,-48.75,1845.0
1787130748.0217087,-2.392,-0.539,9.459,-0.014,-0.006,0.008,-49.5,3.0,-49.95,1873.0
1787130748.0217204,-2.095,-0.539,9.512,0.001,-0.009,-0.011,-49.05,4.5,-49.65,1873.0
1787130748.2262907,-2.234,-0.35,9.431,-0.045,-0.01,0.025,-48.0,4.5,-49.95,1868.0
1787130748.2263167,-2.148,-0.479,9.474,-0.051,0.003,0.018,-50.85,4.05,-50.55,1868.0
1787130748.2263281,-2.31,-0.532,9.448,-0.045,0.006,0.009,-50.25,4.2,-49.95,1868.0
1787130748.4317665,-2.198,-0.546,9.538,-0.011,-0.031,-0.009,-49.35,2.4,-50.55,1853.0
1787130748.637385,-2.265,-0.433,9.459,-0.008,-0.007,0.005,-49.8,5.7,-49.95,1876.0
1787130748.637409,-2.126,-0.429,9.493,-0.009,0.001,0.009,-49.8,5.4,-49.95,1876.0
1787130748.6374202,-2.265,-0.318,9.491,-0.009,0.007,-0.003,-50.25,5.7,-50.7,1858.0
1787130748.842286,-2.195,-0.429,9.493,0.004,0.019,-0.014,-50.55,4.95,-49.2,1919.0
1787130748.8423111,-2.291,-0.424,9.426,-0.012,0.014,-0.006,-50.55,4.5,-49.2,1919.0
1787130748.8423223,-2.191,-0.362,9.479,-0.023,0.003,-0.002,-49.5,6.15,-50.7,1893.0
1787130749.0461967,-2.186,-0.405,9.428,-0.005,0.022,-0.001,-48.6,4.8,-48.75,1871.0
1787130749.046217,-2.136,-0.373,9.414,-0.026,0.011,0.005,-48.3,5.4,-50.4,1871.0
1787130749.0462236,-2.136,-0.385,9.527,-0.039,0.009,0.015,-48.0,5.7,-50.7,1871.0
1787130749.2512684,-2.138,-0.505,9.531,0.012,-0.001,-0.021,-49.05,4.2,-49.65,1846.0
1787130749.2512944,-2.229,-0.441,9.519,0.002,0.004,-0.018,-49.05,4.2,-49.65,1846.0
1787130749.2513056,-2.229,-0.486,9.74,0.014,0.007,-0.071,-49.65,5.1,-50.85,1846.0
1787130749.4557176,-2.248,-0.297,9.515,0.005,0.002,-0.012,-49.8,5.4,-49.65,1880.0
1787130749.4557433,-2.258,-0.388,9.515,0.011,0.007,-0.016,-48.0,4.95,-49.95,1880.0
1787130749.4557543,-2.243,-0.419,9.459,-0.009,0.006,-0.026,-49.65,4.05,-49.35,1880.0
1787130749.6632442,-2.191,-0.424,9.445,-0.012,0.02,0.001,-48.0,4.95,-50.7,1864.0
1787130749.66327,-2.176,-0.414,9.479,-0.023,-0.001,0.012,-48.6,5.1,-50.55,1864.0
1787130749.8653173,-2.215,-0.429,9.61,-0.034,-0.018,0.011,-49.8,4.5,-49.95,1918.0
1787130749.8653424,-2.061,-0.424,9.572,-0.007,-0.003,-0.005,-49.5,5.7,-49.2,1918.0
1787130749.8653538,-2.157,-0.333,9.591,-0.004,-0.006,0.009,-48.75,4.95,-49.2,1918.0
1787130750.0675716,-2.131,-0.338,9.462,-0.013,0.024,0.01,-50.85,5.1,-49.8,1928.0
1787130750.2748382,-2.124,-0.476,9.404,-0.028,-0.014,-0.007,-49.05,6.15,-49.65,1859.0
1787130750.2748744,-2.215,-0.429,9.471,-0.023,0.021,-0.01,-48.9,5.55,-49.8,1880.0
1787130750.2748864,-2.16,-0.421,9.426,-0.024,0.012,-0.012,-48.3,4.2,-51.0,1880.0
1787130750.4787536,-2.296,-0.474,9.531,0.008,-0.016,-0.025,-48.0,4.5,-49.95,1841.0
1787130750.4787796,-2.389,-0.503,9.498,0.013,-0.049,-0.01,-50.85,4.8,-49.8,1873.0
1787130750.6843867,-2.21,-0.347,9.55,-0.043,0.03,0.017,-51.6,2.4,-48.0,1860.0
1787130750.684412,-2.126,-0.479,9.503,-0.034,0.012,0.026,-48.15,5.55,-50.55,1911.0
1787130750.684424,-2.152,-0.52,9.498,-0.02,0.014,-0.012,-50.4,5.1,-50.1,1911.0
1787130750.889297,-2.107,-0.417,9.534,-0.002,-0.009,-0.007,-49.65,6.3,-50.55,1904.0
1787130750.8893223,-2.088,-0.436,9.469,-0.01,0.004,-0.014,-49.65,4.35,-48.0,1906.0
1787130750.8893332,-2.105,-0.395,9.491,-0.013,0.004,-0.011,-49.65,4.35,-48.0,1906.0
1787130751.0935464,-2.093,-0.414,9.572,-0.029,0.008,-0.003,-49.5,5.7,-49.2,1902.0
1787130751.093573,-2.105,-0.388,9.529,-0.025,0.004,0.006,-48.75,4.95,-50.7,1902.0
1787130751.0935843,-2.078,-0.424,9.522,-0.018,0.013,-0.006,-48.3,5.4,-51.0,1883.0
1787130751.301023,-2.167,-0.438,9.488,-0.015,0.009,-0.001,-50.4,4.8,-50.55,1892.0
1787130751.3012302,-2.229,-0.445,9.579,-0.012,-0.006,-0.017,-49.35,4.8,-50.1,1892.0
1787130751.3012388,-2.131,-0.395,9.522,-0.006,-0.001,-0.001,-49.65,4.35,-50.1,1892.0
1787130751.5041857,-2.033,-0.311,9.507,-0.013,-0.006,-0.009,-49.5,4.95,-50.7,1914.0
1787130751.5042098,-2.152,-0.417,9.443,-0.02,-0.01,-0.011,-50.25,4.2,-50.4,1914.0
1787130751.5042224,-2.076,-0.414,9.548,-0.02,0.0,-0.002,-50.55,5.7,-49.95,1914.0
1787130751.706054,-2.081,-0.443,9.529,-0.034,0.024,0.007,-51.15,5.1,-50.1,1923.0
1787130751.913746,-2.212,-0.414,9.476,-0.024,-0.005,0.006,-48.9,4.35,-50.85,1903.0
1787130751.9137716,-2.095,-0.412,9.483,-0.027,-0.01,0.014,-50.1,5.1,-49.8,1903.0
1787130751.913783,-2.006,-0.335,9.56,-0.02,0.013,0.004,-48.6,4.05,-49.8,1903.0
1787130752.1181862,-2.107,-0.534,9.5,-0.012,-0.01,-0.007,-49.65,5.1,-50.1,1877.0
1787130752.1182115,-2.002,-0.496,9.524,-0.009,0.011,-0.006,-49.05,4.95,-51.0,1877.0
1787130752.118223,-2.15,-0.405,9.51,-0.004,0.006,-0.017,-49.05,4.95,-51.75,1877.0
1787130752.3225453,-2.164,-0.407,9.507,-0.018,0.039,-0.003,-48.6,4.35,-52.05,1902.0
1787130752.3225708,-2.234,-0.426,9.491,-0.02,0.022,-0.001,-48.9,4.35,-50.85,1902.0
1787130752.3225825,-2.105,-0.467,9.572,-0.022,0.009,0.002,-49.8,4.5,-51.0,1902.0
1787130752.5272756,-2.148,-0.431,9.55,-0.011,0.006,-0.01,-49.35,4.8,-50.1,1885.0
1787130752.5273004,-2.1,-0.436,9.493,-0.009,0.009,-0.004,-48.3,4.5,-50.7,1885.0
1787130752.5273116,-2.155,-0.46,9.541,-0.01,0.011,-0.005,-48.3,4.5,-50.7,1885.0
1787130752.7337728,-2.002,-0.474,9.524,-0.013,0.02,-0.003,-49.5,4.2,-49.65,1918.0
1787130752.7337973,-2.066,-0.371,9.572,-0.016,0.035,-0.007,-49.65,4.8,-49.35,1918.0
1787130752.7338088,-2.184,-0.46,9.51,-0.006,0.031,-0.007,-49.65,3.6,-49.35,1918.0
1787130752.9341629,-2.138,-0.455,9.519,-0.023,0.024,0.002,-48.0,4.2,-50.7,1877.0
1787130752.934188,-2.2,-0.443,9.548,-0.02,0.027,0.003,-48.75,4.5,-48.9,1877.0
1787130752.9455888,-2.152,-0.433,9.512,-0.015,0.021,0.004,-48.9,5.55,-50.85,1877.0
1787130753.1422095,-2.313,-0.419,9.531,-0.007,0.009,-0.014,-49.5,4.2,-49.95,1886.0
1787130753.1422358,-2.179,-0.445,9.519,-0.01,0.0,-0.003,-49.65,5.55,-50.85,1879.0
1787130753.1422472,-2.049,-0.45,9.534,-0.014,0.01,-0.006,-49.05,3.45,-50.4,1879.0
1787130753.3458598,-2.164,-0.441,9.548,-0.01,0.01,0.003,-50.25,5.7,-49.95,1877.0
1787130753.3458853,-2.222,-0.421,9.481,-0.012,0.004,-0.002,-48.0,4.95,-49.65,1904.0
1787130753.5511646,-2.188,-0.45,9.5,-0.015,0.013,-0.004,-49.5,4.5,-51.0,1859.0
1787130753.5511897,-2.148,-0.4,9.457,-0.014,0.012,-0.002,-49.05,3.75,-51.0,1859.0
1787130753.5512013,-2.205,-0.484,9.476,-0.012,0.007,-0.007,-48.3,4.95,-49.2,1859.0
1787130753.7565324,-2.174,-0.479,9.488,-0.016,0.015,-0.007,-49.8,4.5,-49.65,1931.0
1787130753.7565587,-2.121,-0.424,9.498,-0.019,0.014,0.001,-49.5,4.2,-52.2,1931.0
1787130753.75657,-2.184,-0.46,9.536,-0.016,0.02,-0.009,-49.8,4.95,-50.4,1931.0
1787130753.9616423,-2.286,-0.385,9.529,-0.011,-0.012,0.011,-48.0,4.2,-49.65,1893.0
1787130753.9616678,-2.114,-0.364,9.462,-0.023,-0.004,0.002,-49.5,3.75,-50.7,1893.0
1787130753.9616787,-2.16,-0.421,9.498,-0.016,0.011,-0.007,-50.1,4.05,-50.1,1893.0
1787130754.1660893,-2.172,-0.486,9.512,-0.024,0.042,-0.006,-48.75,4.95,-49.95,1872.0
1787130754.1661704,-2.246,-0.436,9.519,-0.017,0.043,-0.006,-46.95,4.5,-50.7,1872.0
1787130754.1661825,-2.251,-0.366,9.5,-0.017,0.032,-0.006,-50.4,4.05,-50.85,1872.0
1787130754.370409,-2.241,-0.357,9.524,-0.02,0.009,-0.002,-49.5,4.5,-50.7,1894.0
1787130754.3704338,-2.207,-0.395,9.522,-0.019,0.01,-0.005,-49.35,4.8,-50.1,1894.0
1787130754.3704453,-2.231,-0.503,9.479,-0.015,0.011,-0.003,-49.5,4.95,-50.7,1894.0
1787130754.5757635,-2.205,-0.438,9.474,-0.019,0.007,0.001,-48.6,3.6,-49.8,1862.0
1787130754.575789,-2.174,-0.412,9.481,-0.012,0.01,-0.002,-48.9,5.55,-49.35,1862.0
1787130754.5758004,-2.172,-0.453,9.529,-0.012,0.011,0.001,-49.5,3.75,-51.0,1862.0
1787130754.7804196,-2.2,-0.407,9.493,-0.017,0.03,-0.008,-48.9,4.05,-51.3,1873.0
1787130754.7804449,-2.234,-0.472,9.486,-0.018,0.008,0.009,-48.9,3.15,-49.8,1873.0
1787130754.7804556,-2.217,-0.462,9.479,-0.018,0.006,0.004,-47.4,5.1,-49.8,1873.0
1787130754.982819,-2.195,-0.462,9.5,-0.02,0.01,0.001,-48.6,4.35,-49.35,1826.0
1787130755.189424,-2.105,-0.469,9.476,-0.017,-0.013,-0.006,-48.15,4.8,-50.55,1882.0
1787130755.1894484,-2.059,-0.472,9.455,-0.016,-0.003,-0.007,-48.6,3.6,-50.1,1838.0
1787130755.1894603,-2.181,-0.395,9.495,-0.012,0.014,-0.01,-49.35,4.05,-50.55,1838.0
1787130755.3942635,-2.186,-0.464,9.522,-0.017,0.014,0.01,-48.3,5.7,-50.4,1890.0
1787130755.3942928,-2.272,-0.381,9.491,-0.018,0.026,0.003,-48.9,4.05,-49.8,1890.0
1787130755.3943043,-2.229,-0.419,9.424,-0.018,0.012,0.011,-49.05,5.4,-49.65,1890.0
1787130755.5991375,-2.229,-0.426,9.531,-0.015,0.01,-0.001,-48.15,4.35,-50.1,1888.0
1787130755.5991714,-2.279,-0.438,9.459,-0.012,0.007,-0.004,-48.3,3.75,-49.95,1888.0
1787130755.5991826,-2.231,-0.441,9.483,-0.021,0.008,-0.001,-49.5,4.2,-50.4,1869.0
1787130755.800547,-2.294,-0.441,9.524,-0.014,0.009,-0.004,-49.65,3.6,-49.8,1864.0
1787130755.8129182,-2.265,-0.395,9.469,-0.015,0.008,0.002,-48.3,4.2,-48.9,1864.0
1787130755.8129432,-2.145,-0.46,9.443,-0.02,0.003,0.003,-48.0,3.45,-49.95,1900.0
1787130756.0087066,-2.289,-0.433,9.448,-0.014,0.005,-0.004,-48.15,3.15,-49.35,1870.0
1787130756.0087318,-2.174,-0.472,9.467,-0.019,0.007,0.005,-49.5,3.75,-49.65,1870.0
1787130756.0087435,-2.112,-0.464,9.536,-0.017,0.013,0.001,-49.65,4.8,-51.3,1918.0
1787130756.2135417,-2.298,-0.407,9.459,-0.018,0.004,0.018,-48.75,5.4,-50.4,1878.0
1787130756.2135665,-2.267,-0.388,9.491,-0.013,0.012,0.005,-48.3,4.5,-49.95,1878.0
1787130756.2135777,-2.313,-0.385,9.421,-0.01,0.008,-0.006,-48.3,4.5,-49.95,1878.0
1787130756.4184496,-2.184,-0.369,9.534,-0.014,0.02,0.004,-48.3,3.45,-51.45,1903.0
1787130756.418476,-2.229,-0.383,9.464,-0.022,0.014,-0.002,-48.9,4.35,-50.1,1903.0
1787130756.4184878,-2.191,-0.4,9.534,-0.016,0.01,-0.002,-48.6,4.35,-50.1,1903.0
1787130756.6217117,-2.265,-0.421,9.436,-0.021,-0.004,-0.001,-48.0,4.2,-50.4,1898.0
1787130756.8280969,-2.251,-0.505,9.51,-0.01,0.006,0.0,-49.5,3.0,-49.65,1869.0
1787130756.8281221,-2.229,-0.424,9.459,-0.009,0.002,0.001,-48.0,3.75,-49.65,1869.0
1787130756.8281338,-2.215,-0.441,9.541,-0.015,0.01,-0.003,-48.0,4.2,-50.4,1869.0
1787130757.033073,-2.215,-0.436,9.493,-0.012,0.004,0.018,-47.4,4.05,-49.8,1902.0
1787130757.0330977,-2.186,-0.45,9.464,-0.006,0.01,0.001,-49.35,3.6,-50.85,1902.0
1787130757.0331094,-2.296,-0.393,9.517,-0.01,0.018,-0.013,-48.75,4.2,-48.9,1902.0
1787130757.2375114,-2.184,-0.373,9.541,-0.009,0.011,-0.003,-48.9,3.15,-50.55,1903.0
1787130757.2375386,-2.248,-0.426,9.481,-0.018,0.014,-0.001,-47.85,3.6,-50.1,1864.0
1787130757.2375507,-2.253,-0.436,9.474,-0.014,0.006,-0.005,-48.75,3.45,-49.95,1864.0
1787130757.4428365,-2.279,-0.405,9.517,-0.013,0.012,-0.002,-48.75,5.7,-50.4,1880.0
1787130757.443022,-2.26,-0.4,9.469,-0.018,0.009,-0.003,-48.6,3.6,-49.8,1823.0
1787130757.443042,-2.219,-0.469,9.558,-0.013,0.013,-0.003,-47.85,4.35,-49.8,1823.0
1787130757.6472318,-2.184,-0.445,9.498,-0.024,0.018,-0.005,-47.7,3.0,-50.7,1894.0
1787130757.647257,-2.205,-0.462,9.467,-0.022,0.026,0.003,-48.0,4.5,-50.4,1844.0
1787130757.6472683,-2.246,-0.407,9.459,-0.014,0.02,-0.001,-49.65,4.8,-50.1,1844.0
1787130757.8526247,-2.229,-0.395,9.491,-0.018,0.009,0.009,-48.6,3.15,-50.55,1823.0
1787130757.85265,-2.205,-0.493,9.486,-0.016,0.014,0.0,-48.6,4.05,-50.85,1823.0
1787130757.8526611,-2.246,-0.373,9.524,-0.016,0.02,-0.003,-49.05,4.2,-49.65,1823.0
1787130758.057552,-2.289,-0.417,9.476,-0.015,0.009,-0.007,-48.15,4.35,-50.85,1886.0
1787130758.0575771,-2.236,-0.412,9.51,-0.021,0.006,-0.002,-49.35,3.6,-51.3,1909.0
1787130758.0575886,-2.243,-0.338,9.467,-0.015,0.011,-0.002,-47.7,4.2,-49.65,1909.0
1787130758.2597024,-2.241,-0.488,9.495,-0.016,0.018,-0.003,-48.0,4.2,-49.65,1860.0
1787130758.4678147,-2.279,-0.429,9.424,-0.027,0.007,0.007,-48.0,3.0,-50.4,1891.0
1787130758.46784,-2.282,-0.409,9.507,-0.015,0.013,0.0,-49.05,3.0,-49.2,1891.0
1787130758.4678614,-2.263,-0.354,9.546,-0.022,0.015,0.008,-48.15,3.6,-50.1,1866.0
1787130758.6717799,-2.377,-0.453,9.531,-0.017,0.012,-0.002,-48.9,3.15,-50.1,1875.0
1787130758.6718056,-2.277,-0.364,9.505,-0.021,0.009,0.006,-47.85,2.4,-49.8,1875.0
1787130758.671817,-2.308,-0.417,9.448,-0.018,0.023,-0.006,-48.3,4.2,-50.7,1875.0
1787130758.876099,-2.246,-0.405,9.483,-0.012,0.019,-0.006,-48.0,3.75,-51.0,1881.0
1787130758.8761249,-2.318,-0.409,9.495,-0.018,0.019,-0.001,-48.75,3.75,-48.15,1881.0
1787130758.8761365,-2.246,-0.369,9.481,-0.018,0.021,-0.003,-47.25,4.2,-49.95,1912.0
1787130759.0808682,-2.258,-0.426,9.438,-0.014,0.004,-0.005,-48.75,4.5,-50.4,1914.0
1787130759.0808947,-2.315,-0.424,9.503,-0.013,0.01,-0.005,-48.75,4.2,-49.95,1914.0
1787130759.0809062,-2.351,-0.445,9.428,-0.012,0.002,-0.006,-48.0,4.2,-51.0,1914.0
1787130759.2856853,-2.289,-0.397,9.469,-0.018,0.015,-0.003,-49.05,3.45,-49.2,1914.0
1787130759.2857094,-2.296,-0.431,9.445,-0.018,0.016,-0.004,-49.8,3.45,-49.2,1914.0
1787130759.2857206,-2.33,-0.414,9.51,-0.019,0.018,-0.003,-48.6,5.85,-50.1,1914.0
1787130759.490964,-2.354,-0.455,9.486,-0.015,-0.002,0.005,-48.0,3.45,-48.9,1863.0
1787130759.4911613,-2.315,-0.431,9.471,-0.019,0.003,0.002,-48.15,4.8,-49.8,1838.0
1787130759.4911704,-2.294,-0.405,9.529,-0.015,0.016,-0.005,-48.3,1.8,-49.2,1838.0
1787130759.6952233,-2.279,-0.393,9.459,-0.014,0.005,-0.004,-49.35,3.6,-49.8,1883.0
1787130759.6952477,-2.27,-0.431,9.433,-0.013,0.016,0.003,-48.3,2.7,-50.4,1822.0
1787130759.6952586,-2.258,-0.448,9.457,-0.024,0.013,-0.002,-48.9,4.35,-48.75,1822.0
1787130759.8985426,-2.334,-0.419,9.459,-0.021,0.01,0.003,-48.15,4.05,-50.55,1858.0
1787130760.1050735,-2.327,-0.462,9.452,-0.002,0.015,-0.023,-49.35,2.85,-50.55,1784.0
1787130760.1050987,-2.32,-0.474,9.433,-0.012,0.015,-0.018,-49.65,3.15,-49.05,1784.0
1787130760.10511,-2.471,-0.421,9.531,-0.023,0.01,-0.01,-48.0,4.2,-50.7,1830.0
1787130760.3104415,-2.234,-0.493,9.491,-0.01,0.001,0.009,-50.25,3.75,-49.2,1791.0
1787130760.3104663,-2.337,-0.407,9.529,-0.01,0.007,0.002,-49.35,5.1,-50.1,1791.0
1787130760.3104775,-2.313,-0.407,9.428,-0.013,0.005,0.006,-48.9,4.8,-49.8,1791.0
1787130760.514609,-2.207,-0.441,9.486,-0.031,-0.02,-0.011,-49.8,3.45,-49.2,1857.0
1787130760.514634,-2.246,-0.443,9.517,-0.018,0.001,-0.019,-48.6,5.85,-50.55,1857.0
1787130760.5146453,-2.342,-0.481,9.467,-0.02,-0.004,-0.009,-49.05,3.45,-50.7,1857.0
1787130760.7202253,-2.16,-0.4,9.433,-0.011,0.02,-0.004,-47.25,3.45,-49.95,1889.0
1787130760.7202508,-2.217,-0.433,9.474,-0.019,0.038,-0.006,-49.5,4.2,-49.2,1889.0
1787130760.7202618,-2.253,-0.385,9.438,-0.02,0.037,-0.015,-48.3,3.0,-49.95,1889.0
1787130760.9247031,-2.308,-0.407,9.486,-0.02,0.015,0.009,-48.0,3.45,-49.65,1900.0
1787130760.9247289,-2.279,-0.397,9.392,-0.021,0.012,0.007,-48.75,4.2,-51.0,1900.0
1787130760.92474,-2.373,-0.453,9.402,-0.016,0.003,0.0,-47.85,2.4,-49.05,1900.0
1787130761.1291227,-2.298,-0.412,9.512,-0.015,0.001,-0.005,-48.6,2.4,-49.35,1847.0
1787130761.1291485,-2.258,-0.419,9.459,-0.018,-0.006,-0.005,-48.3,3.75,-50.4,1847.0
1787130761.1291595,-2.195,-0.517,9.467,-0.016,0.005,-0.005,-48.9,4.05,-49.35,1847.0
1787130761.3343732,-2.392,-0.407,9.493,-0.016,0.013,-0.01,-50.4,5.55,-49.35,1870.0
1787130761.3343983,-2.26,-0.51,9.517,-0.012,0.022,0.013,-48.3,4.2,-50.7,1870.0
1787130761.3344092,-2.485,-0.354,9.438,-0.01,-0.002,-0.008,-48.9,4.05,-50.1,1870.0
1787130761.5387282,-2.385,-0.366,9.481,-0.016,0.011,0.011,-48.15,3.6,-49.8,1846.0
1787130761.7431538,-2.255,-0.441,9.505,-0.011,0.01,-0.009,-48.9,4.05,-52.05,1898.0
1787130761.743178,-2.337,-0.424,9.491,-0.013,0.02,-0.01,-49.05,3.75,-51.45,1879.0
1787130761.7431896,-2.274,-0.424,9.426,-0.023,0.024,-0.002,-48.6,3.15,-49.35,1879.0
1787130761.9484382,-2.339,-0.388,9.515,-0.015,0.015,0.001,-47.85,4.8,-50.1,1843.0
1787130761.948464,-2.37,-0.421,9.448,-0.018,0.005,-0.001,-49.05,3.75,-50.7,1854.0
1787130761.9484751,-2.413,-0.45,9.522,-0.01,-0.001,0.007,-49.35,2.85,-49.8,1854.0
1787130762.1528373,-2.37,-0.419,9.512,-0.011,-0.012,-0.011,-48.0,3.75,-50.4,1926.0
1787130762.1528697,-2.282,-0.431,9.476,-0.023,-0.007,-0.003,-49.35,4.8,-49.8,1876.0
1787130762.1528816,-2.239,-0.462,9.45,-0.026,-0.003,-0.003,-49.35,3.6,-50.55,1876.0
1787130762.3579965,-2.337,-0.445,9.491,-0.024,-0.003,0.003,-47.85,4.35,-49.8,1872.0
1787130762.3580267,-2.282,-0.464,9.407,-0.023,0.001,0.009,-50.1,4.35,-50.55,1872.0
1787130762.3580382,-2.263,-0.429,9.491,-0.021,0.002,0.002,-48.6,3.15,-50.85,1835.0
1787130762.5623934,-2.21,-0.429,9.481,-0.015,-0.013,0.005,-48.6,5.55,-50.85,1888.0
1787130762.5624173,-2.14,-0.4,9.483,-0.02,-0.002,-0.001,-48.75,3.45,-48.9,1888.0
1787130762.562429,-2.325,-0.366,9.495,-0.018,0.003,-0.007,-48.3,3.75,-51.0,1856.0
1787130762.767781,-2.124,-0.414,9.524,-0.006,0.01,-0.012,-49.35,2.85,-50.55,1819.0
1787130762.7678065,-2.241,-0.426,9.517,-0.007,0.03,-0.006,-48.15,2.85,-50.55,1819.0
1787130762.7678182,-2.303,-0.443,9.457,-0.014,0.031,-0.007,-50.85,5.1,-49.05,1819.0
1787130762.971894,-2.303,-0.517,9.404,-0.01,0.004,-0.002,-48.15,3.6,-50.1,1873.0
1787130762.9719207,-2.318,-0.4,9.505,-0.012,0.007,0.006,-49.5,3.45,-51.45,1873.0
1787130762.971933,-2.282,-0.393,9.471,-0.011,0.013,-0.003,-49.65,4.35,-49.8,1873.0
1787130763.175425,-2.289,-0.414,9.5,-0.029,0.003,0.003,-49.05,3.75,-49.65,1892.0
1787130763.3817942,-2.265,-0.371,9.462,-0.007,-0.001,-0.003,-48.9,2.4,-49.35,1879.0
1787130763.3818188,-2.217,-0.436,9.464,-0.019,0.003,0.003,-48.9,5.1,-50.85,1879.0
1787130763.3818305,-2.248,-0.457,9.467,-0.023,0.014,-0.005,-48.3,3.0,-50.7,1879.0
1787130763.5867803,-2.282,-0.457,9.469,-0.029,0.0,0.005,-48.75,4.2,-48.15,1895.0
1787130763.5868044,-2.255,-0.448,9.414,-0.013,0.024,-0.013,-48.3,6.15,-49.65,1895.0
1787130763.5868156,-2.356,-0.433,9.431,-0.009,0.016,-0.027,-49.05,4.2,-49.65,1895.0
1787130763.7919743,-2.301,-0.433,9.479,-0.015,-0.008,-0.005,-49.05,3.45,-49.95,1857.0
1787130763.7921548,-2.26,-0.431,9.44,-0.018,0.002,-0.001,-47.7,5.7,-50.4,1857.0
1787130763.7921636,-2.193,-0.512,9.491,-0.03,0.014,0.003,-49.8,5.4,-50.7,1857.0
1787130763.9967086,-2.282,-0.517,9.462,-0.03,0.043,-0.001,-49.05,2.7,-49.95,1755.0
1787130763.9967353,-2.325,-0.474,9.488,-0.025,0.052,-0.004,-48.3,3.75,-49.95,1755.0
1787130763.9967468,-2.296,-0.469,9.479,-0.025,0.049,0.0,-48.75,5.4,-49.95,1755.0
1787130764.2028303,-2.2,-0.515,9.455,-0.011,0.006,-0.006,-48.9,4.35,-49.8,1873.0
1787130764.2028673,-2.389,-0.486,9.479,-0.014,0.0,-0.014,-48.9,3.15,-49.8,1873.0
1787130764.406317,-2.303,-0.5,9.436,-0.023,-0.006,0.004,-48.9,4.35,-48.3,1867.0
1787130764.4063427,-2.289,-0.515,9.515,-0.021,0.002,-0.001,-46.95,1.8,-48.9,1867.0
1787130764.4063542,-2.241,-0.46,9.462,-0.027,0.004,0.007,-49.5,4.5,-51.75,1890.0
1787130764.6105194,-2.375,-0.512,9.474,-0.026,0.027,-0.015,-47.85,3.15,-49.35,1838.0
1787130764.6105433,-2.437,-0.479,9.498,-0.013,0.016,-0.01,-48.9,2.1,-49.35,1833.0
1787130764.6105552,-2.44,-0.493,9.481,-0.008,-0.001,-0.007,-49.05,4.5,-51.0,1833.0
1787130764.8138945,-2.306,-0.431,9.428,0.001,0.003,-0.009,-48.6,3.6,-49.8,1879.0
1787130765.0201728,-2.346,-0.534,9.486,-0.004,0.016,-0.004,-48.0,3.45,-49.65,1855.0
1787130765.0201974,-2.375,-0.493,9.443,-0.006,0.011,-0.004,-48.9,4.35,-50.55,1855.0
1787130765.0202086,-2.361,-0.488,9.426,-0.014,-0.004,0.011,-49.8,3.45,-49.65,1855.0
1787130765.2250974,-2.286,-0.503,9.45,-0.015,0.026,-0.004,-47.85,2.85,-50.85,1860.0
1787130765.2251234,-2.322,-0.436,9.443,-0.02,0.016,0.004,-48.9,6.3,-50.85,1860.0
1787130765.2251346,-2.282,-0.464,9.445,-0.011,0.016,-0.016,-48.75,3.45,-51.0,1860.0
1787130765.4302847,-2.368,-0.493,9.491,-0.005,0.014,-0.009,-50.1,4.35,-50.55,1883.0
1787130765.4303105,-2.334,-0.546,9.4,-0.011,0.01,-0.002,-50.25,3.45,-50.4,1883.0
1787130765.4303217,-2.397,-0.541,9.493,-0.005,-0.004,-0.002,-49.8,2.7,-50.7,1883.0
1787130765.6352007,-2.327,-0.541,9.467,-0.015,0.028,-0.004,-50.4,5.1,-49.35,1803.0
1787130765.6352208,-2.346,-0.596,9.491,-0.016,0.027,-0.005,-49.05,2.7,-49.95,1803.0
1787130765.6352272,-2.365,-0.56,9.495,-0.015,0.02,0.002,-49.05,4.2,-49.65,1803.0
1787130765.8399382,-2.358,-0.52,9.481,-0.032,0.011,0.007,-49.65,5.1,-49.8,1837.0
1787130765.8399637,-2.351,-0.548,9.479,-0.029,0.005,0.004,-49.35,2.1,-50.85,1837.0
1787130765.8399746,-2.274,-0.541,9.481,-0.022,0.005,0.009,-50.55,4.2,-48.45,1837.0
1787130766.0441148,-2.392,-0.52,9.462,-0.002,0.003,-0.01,-48.75,4.2,-51.0,1830.0
1787130766.0441406,-2.339,-0.493,9.443,-0.003,-0.001,-0.004,-48.6,3.15,-50.1,1830.0
1787130766.044152,-2.284,-0.479,9.474,-0.003,0.004,-0.011,-49.05,4.2,-50.4,1830.0
1787130766.2490852,-2.349,-0.484,9.404,-0.017,-0.01,-0.01,-49.5,4.95,-49.95,1836.0
1787130766.2491097,-2.332,-0.515,9.419,-0.024,-0.009,0.001,-48.75,4.2,-51.0,1836.0
1787130766.2491214,-2.349,-0.553,9.414,-0.023,-0.008,0.009,-48.9,2.85,-49.35,1836.0
1787130766.4539115,-2.313,-0.453,9.426,-0.02,0.001,0.001,-49.65,4.05,-50.1,1873.0
1787130766.6588778,-2.342,-0.433,9.448,-0.002,-0.005,-0.01,-49.35,4.35,-50.1,1809.0
1787130766.6589034,-2.344,-0.481,9.448,-0.012,-0.008,-0.007,-49.35,3.6,-50.1,1865.0
1787130766.6589143,-2.342,-0.474,9.402,-0.021,-0.003,-0.007,-49.35,3.6,-49.8,1865.0
1787130766.8641121,-2.291,-0.567,9.527,-0.026,-0.002,0.004,-48.6,4.05,-50.85,1842.0
1787130767.0688424,-2.308,-0.467,9.5,-0.025,0.016,0.002,-49.65,4.05,-49.05,1843.0
1787130767.0688806,-2.212,-0.553,9.5,-0.016,0.021,-0.002,-47.4,2.85,-50.1,1843.0
1787130767.0688922,-2.392,-0.474,9.428,-0.014,0.02,0.001,-49.35,3.15,-50.1,1846.0
1787130767.2730746,-2.428,-0.57,9.476,-0.02,0.003,0.002,-48.6,4.05,-50.55,1848.0
1787130767.2731006,-2.274,-0.558,9.426,-0.025,0.0,0.003,-49.65,2.4,-50.85,1848.0
1787130767.2731123,-2.31,-0.484,9.483,-0.022,0.008,0.001,-49.8,3.75,-48.15,1820.0
1787130767.4779706,-2.284,-0.527,9.412,-0.019,0.009,0.002,-47.25,3.75,-50.7,1804.0
1787130767.4779956,-2.291,-0.563,9.481,-0.019,0.014,-0.003,-48.0,4.2,-49.95,1804.0
1787130767.4780076,-2.272,-0.541,9.474,-0.014,0.014,-0.004,-49.5,4.95,-51.75,1804.0
1787130767.6824808,-2.322,-0.453,9.474,-0.014,0.007,-0.007,-48.75,3.75,-48.45,1793.0
1787130767.6825054,-2.313,-0.515,9.474,-0.008,0.01,-0.006,-49.35,4.05,-50.55,1793.0
1787130767.8879035,-2.358,-0.599,9.5,-0.007,-0.001,-0.004,-47.25,3.75,-50.7,1854.0
1787130767.8879287,-2.265,-0.563,9.462,-0.006,0.001,-0.006,-49.65,4.05,-50.55,1854.0
1787130767.8879402,-2.394,-0.555,9.493,0.005,-0.004,-0.011,-49.5,3.75,-50.4,1854.0
1787130768.0908139,-2.313,-0.445,9.407,-0.015,0.025,-0.009,-48.3,3.0,-51.45,1855.0
1787130768.300469,-2.586,-0.352,9.419,0.01,-0.071,0.007,-49.05,4.95,-50.7,1838.0
1787130768.3004942,-2.126,-0.469,9.392,-0.005,-0.054,-0.017,-48.75,3.45,-50.4,1838.0
1787130768.3005054,-2.289,-0.409,9.488,0.007,-0.048,-0.032,-48.75,5.4,-50.7,1838.0
1787130768.504138,-2.243,-0.481,9.486,-0.032,-0.008,0.013,-49.05,4.95,-50.4,1840.0
1787130768.5041754,-2.394,-0.515,9.505,-0.021,-0.016,-0.001,-48.0,3.0,-50.4,1854.0
1787130768.5041823,-2.284,-0.543,9.474,-0.011,-0.019,-0.007,-49.05,3.75,-49.2,1854.0
1787130768.7065291,-2.272,-0.522,9.548,-0.032,0.013,0.012,-49.05,3.75,-50.7,1871.0
1787130768.7065558,-2.097,-0.589,9.527,-0.015,0.036,0.007,-49.65,4.05,-51.3,1863.0
1787130768.706568,-2.363,-0.546,9.433,-0.001,0.043,-0.008,-48.6,4.05,-49.8,1863.0
1787130768.9113758,-2.351,-0.486,9.546,-0.007,0.048,-0.021,-49.8,4.95,-49.95,1834.0
1787130768.9114006,-1.908,-0.527,9.524,-0.01,0.049,0.007,-48.3,3.75,-51.45,1833.0
1787130768.911412,-2.44,-0.429,9.505,-0.004,0.076,-0.031,-49.35,4.35,-50.85,1833.0
1787130769.1168685,-2.164,-0.512,9.438,-0.001,-0.034,-0.001,-47.85,4.05,-50.1,1782.0
1787130769.116894,-2.176,-0.417,9.373,-0.022,-0.005,-0.002,-48.15,5.1,-50.85,1858.0
1787130769.1169596,-2.078,-0.572,9.431,-0.026,0.027,-0.015,-49.8,3.0,-51.0,1858.0
1787130769.3202977,-2.495,-0.453,9.555,-0.022,0.092,-0.01,-48.9,3.6,-49.05,1865.0
1787130769.3203778,-2.555,-0.354,9.505,-0.005,0.061,0.024,-48.15,4.35,-50.1,1799.0
1787130769.5258098,-2.327,-0.551,8.892,0.015,-0.074,0.02,-47.25,4.2,-49.95,1754.0
1787130769.5258346,-2.514,-0.278,9.565,0.009,-0.011,-0.022,-49.5,4.2,-51.0,1754.0
1787130769.5258462,-2.119,-0.247,9.543,0.013,-0.049,0.007,-49.5,4.2,-49.95,1766.0
1787130769.7300887,-2.358,-0.467,9.606,-0.022,0.031,-0.016,-48.75,4.2,-50.4,1806.0
1787130769.730117,-2.231,-0.486,9.481,-0.029,0.036,-0.002,-49.8,3.75,-50.7,1777.0
1787130769.9356232,-2.04,-0.412,9.582,-0.015,0.009,0.006,-48.9,4.05,-50.1,1795.0
1787130769.9356482,-2.303,-0.273,9.397,-0.007,0.028,-0.011,-49.35,4.05,-50.55,1795.0
1787130769.9356594,-2.732,-0.153,9.44,-0.016,-0.036,-0.021,-50.1,3.6,-51.3,1795.0
1787130770.140516,-1.925,-0.553,9.567,-0.032,0.012,0.037,-49.05,6.15,-51.45,1871.0
1787130770.1405418,-1.877,-0.548,9.436,-0.044,0.101,0.018,-48.15,4.35,-50.85,1871.0
1787130770.1405532,-2.385,-0.555,9.433,-0.052,0.162,0.005,-49.05,6.15,-51.0,1871.0
1787130770.3447409,-2.236,-0.69,9.512,0.014,0.023,0.012,-48.3,5.7,-49.95,1823.0
1787130770.3447676,-2.322,-0.632,9.4,0.019,0.024,0.001,-48.75,3.45,-48.45,1823.0
1787130770.3447804,-2.471,-0.534,9.392,0.028,-0.001,-0.024,-47.1,4.35,-50.55,1823.0
1787130770.54983,-2.346,-0.536,9.452,-0.013,0.027,0.01,-49.65,5.1,-50.1,1775.0
1787130770.5498617,-2.397,-0.532,9.45,-0.011,0.013,0.014,-48.9,4.05,-50.1,1775.0
1787130770.5498736,-2.277,-0.412,9.476,-0.018,0.014,0.004,-49.5,4.5,-50.4,1775.0
1787130770.7547028,-2.243,-0.493,9.495,-0.01,-0.012,0.003,-48.3,4.2,-49.65,1792.0
1787130770.7547276,-2.27,-0.455,9.483,-0.011,-0.012,0.002,-48.3,4.95,-49.65,1792.0
1787130770.754739,-2.318,-0.56,9.45,-0.012,0.001,-0.003,-48.3,4.5,-52.2,1792.0
1787130770.9603333,-2.272,-0.472,9.5,-0.011,0.016,-0.003,-48.6,5.85,-50.85,1844.0
1787130770.9603586,-2.337,-0.429,9.455,-0.019,0.017,-0.006,-48.15,4.8,-50.55,1844.0
1787130771.1651318,-2.38,-0.532,9.467,-0.01,0.014,-0.002,-48.6,4.8,-50.1,1838.0
1787130771.1651576,-2.397,-0.491,9.503,-0.019,-0.002,0.004,-48.9,4.05,-49.05,1793.0
1787130771.1651697,-2.301,-0.462,9.455,-0.027,0.008,0.005,-48.75,3.45,-50.4,1793.0
1787130771.368914,-2.37,-0.4,9.51,-0.01,0.014,0.006,-48.75,4.5,-50.7,1738.0
1787130771.57439,-2.2,-0.512,9.464,-0.007,0.018,-0.006,-48.75,4.2,-49.95,1859.0
1787130771.5744154,-2.365,-0.5,9.397,-0.012,0.022,-0.005,-47.7,4.2,-51.45,1859.0
1787130771.574427,-2.32,-0.524,9.519,-0.012,0.017,-0.007,-48.6,4.05,-49.8,1859.0
1787130771.7766743,-2.32,-0.488,9.529,-0.014,0.015,-0.001,-48.6,4.8,-50.85,1756.0
1787130771.781105,-2.382,-0.429,9.467,-0.02,0.01,0.002,-49.5,3.45,-49.65,1756.0
1787130771.7811565,-2.31,-0.472,9.481,-0.02,0.006,-0.006,-48.15,4.8,-49.8,1756.0
1787130771.9901109,-2.356,-0.448,9.503,-0.019,0.014,-0.012,-48.6,4.8,-52.05,1788.0
1787130771.9901373,-2.32,-0.524,9.493,-0.006,0.01,-0.002,-50.25,3.75,-48.9,1788.0
1787130771.990149,-2.425,-0.493,9.421,-0.017,0.003,-0.006,-48.9,4.05,-48.3,1788.0
1787130772.1887646,-2.318,-0.493,9.488,-0.014,0.011,-0.006,-48.0,4.2,-48.45,1858.0
1787130772.1887903,-2.33,-0.455,9.464,-0.018,0.004,-0.004,-48.3,2.7,-51.0,1858.0
1787130772.1888013,-2.33,-0.496,9.464,-0.018,0.007,-0.001,-48.6,4.35,-50.1,1858.0
1787130772.393295,-2.37,-0.498,9.503,-0.008,0.011,-0.004,-48.6,4.8,-49.8,1845.0
1787130772.39332,-2.356,-0.407,9.483,-0.02,0.001,0.001,-49.05,4.2,-49.2,1845.0
1787130772.3933318,-2.361,-0.426,9.476,-0.02,-0.003,-0.003,-48.0,4.5,-51.75,1845.0
1787130772.5985236,-2.227,-0.457,9.455,-0.014,0.006,-0.006,-49.35,4.05,-49.8,1857.0
1787130772.5985494,-2.301,-0.462,9.421,-0.015,0.007,0.002,-48.6,3.15,-49.8,1857.0
1787130772.5985606,-2.222,-0.505,9.479,-0.012,0.02,-0.006,-48.9,5.55,-49.05,1857.0
1787130772.804122,-2.229,-0.467,9.476,-0.01,0.01,-0.002,-47.7,3.0,-49.2,1818.0
1787130772.804147,-2.318,-0.455,9.464,-0.018,0.001,0.004,-49.35,3.6,-50.55,1818.0
1787130772.8041582,-2.267,-0.429,9.483,-0.013,0.004,-0.003,-48.15,5.1,-51.6,1818.0
1787130773.0055106,-2.303,-0.412,9.517,-0.016,0.009,-0.003,-48.9,4.8,-50.55,1859.0
1787130773.2128375,-2.265,-0.522,9.464,-0.018,0.009,-0.001,-50.1,4.35,-49.35,1846.0
1787130773.2128773,-2.435,-0.51,9.455,-0.007,0.011,-0.004,-48.3,4.5,-50.4,1833.0
1787130773.2128894,-2.294,-0.46,9.529,-0.008,0.003,-0.001,-48.3,3.0,-50.4,1833.0
1787130773.4203262,-2.251,-0.464,9.493,-0.013,0.012,-0.007,-49.05,3.75,-50.4,1854.0
1787130773.420352,-2.318,-0.397,9.515,-0.017,0.007,-0.003,-48.9,3.6,-50.1,1864.0
1787130773.4203634,-2.296,-0.462,9.495,-0.015,0.011,-0.005,-48.6,4.05,-50.55,1864.0
1787130773.6224391,-2.313,-0.488,9.512,-0.015,0.009,-0.007,-49.5,5.4,-51.45,1912.0
1787130773.6224647,-2.265,-0.484,9.491,-0.024,0.009,-0.001,-48.15,4.05,-48.0,1912.0
1787130773.622476,-2.274,-0.457,9.495,-0.017,0.011,-0.005,-49.35,3.6,-51.3,1811.0
1787130773.8268151,-2.298,-0.393,9.512,-0.017,0.009,-0.005,-48.75,3.75,-50.4,1787.0
1787130773.8268394,-2.346,-0.503,9.464,-0.02,0.009,-0.001,-48.15,3.15,-50.85,1787.0
1787130773.8268507,-2.327,-0.517,9.426,-0.015,0.006,0.004,-48.75,4.2,-50.4,1836.0
1787130774.0322046,-2.33,-0.486,9.51,-0.014,0.012,-0.006,-49.65,5.85,-49.8,1833.0
1787130774.0322294,-2.263,-0.493,9.438,-0.022,0.004,-0.001,-49.05,3.0,-49.65,1833.0
1787130774.0322406,-2.289,-0.429,9.507,-0.02,0.012,-0.001,-50.55,4.2,-49.95,1819.0
1787130774.2372506,-2.33,-0.412,9.476,-0.023,0.015,-0.002,-49.65,4.05,-50.55,1858.0
1787130774.237277,-2.303,-0.469,9.481,-0.017,0.008,-0.002,-48.3,3.0,-49.2,1858.0
1787130774.237288,-2.358,-0.445,9.503,-0.013,0.014,-0.001,-48.0,4.5,-48.45,1858.0
1787130774.4413576,-2.303,-0.412,9.488,-0.012,0.015,-0.003,-48.0,3.45,-51.75,1879.0
1787130774.441383,-2.272,-0.455,9.471,-0.011,0.012,-0.006,-48.9,4.35,-49.35,1879.0
1787130774.441394,-2.318,-0.462,9.457,-0.015,0.007,-0.004,-49.05,3.45,-50.7,1879.0
1787130774.6438863,-2.303,-0.488,9.445,-0.022,0.009,-0.002,-49.35,4.05,-51.3,1870.0
1787130774.8507423,-2.351,-0.479,9.459,-0.015,0.011,-0.001,-48.75,3.0,-49.2,1865.0
1787130774.8507683,-2.332,-0.472,9.536,-0.01,0.01,-0.002,-48.75,4.95,-49.95,1865.0
1787130774.85078,-2.318,-0.443,9.467,-0.014,0.011,-0.005,-48.15,5.1,-50.1,1865.0
1787130775.0559556,-2.377,-0.462,9.421,-0.014,0.006,-0.009,-49.35,4.8,-49.8,1844.0
1787130775.0561202,-2.322,-0.421,9.445,-0.014,0.016,-0.009,-47.7,3.75,-48.9,1844.0
1787130775.0561488,-2.394,-0.385,9.524,-0.008,0.01,-0.005,-48.15,3.15,-51.75,1844.0
1787130775.2605557,-2.358,-0.359,9.548,-0.018,0.014,0.003,-50.1,3.6,-50.55,1825.0
1787130775.260581,-2.277,-0.443,9.404,-0.022,0.005,0.001,-48.75,3.75,-49.05,1825.0
1787130775.2605925,-2.267,-0.424,9.483,-0.022,0.01,0.001,-48.75,3.45,-51.45,1825.0
1787130775.4652362,-2.354,-0.476,9.416,-0.02,0.008,0.005,-48.6,4.35,-49.8,1879.0
1787130775.465262,-2.308,-0.464,9.44,-0.014,0.016,0.005,-47.85,2.4,-49.05,1879.0
1787130775.465273,-2.296,-0.4,9.452,-0.019,0.018,-0.002,-49.05,4.2,-50.4,1879.0
1787130775.6703522,-2.404,-0.417,9.452,-0.014,0.016,-0.004,-51.15,4.8,-50.1,1858.0
1787130775.6703775,-2.272,-0.436,9.455,-0.013,0.01,-0.002,-47.4,3.6,-50.85,1868.0
1787130775.6703887,-2.344,-0.409,9.483,-0.016,0.007,-0.006,-48.3,3.45,-50.7,1868.0
1787130775.8756063,-2.346,-0.448,9.467,-0.02,0.004,-0.007,-49.35,3.6,-49.8,1887.0
1787130775.875632,-2.37,-0.448,9.455,-0.014,0.009,-0.002,-47.4,3.15,-51.6,1887.0
1787130775.8756435,-2.239,-0.438,9.488,-0.015,0.007,0.001,-49.5,3.75,-50.4,1828.0
1787130776.080787,-2.236,-0.441,9.448,-0.017,0.005,-0.005,-48.3,4.2,-50.4,1856.0
1787130776.080812,-2.296,-0.414,9.457,-0.017,0.01,0.001,-48.15,3.6,-51.3,1856.0
1787130776.0808237,-2.294,-0.464,9.474,-0.019,0.017,0.001,-47.1,4.05,-50.85,1805.0
1787130776.2828255,-2.279,-0.45,9.404,-0.018,0.007,0.001,-48.0,3.0,-49.65,1867.0
1787130776.490519,-2.349,-0.46,9.479,-0.014,0.005,-0.003,-48.15,4.35,-50.55,1899.0
1787130776.4905472,-2.337,-0.503,9.51,-0.011,0.0,0.001,-47.1,4.05,-49.8,1899.0
1787130776.4905589,-2.351,-0.464,9.452,-0.019,0.009,-0.003,-49.05,4.95,-50.4,1859.0
1787130776.6955514,-2.294,-0.426,9.515,-0.015,0.011,-0.002,-49.5,4.5,-50.7,1883.0
1787130776.6955771,-2.315,-0.445,9.488,-0.016,0.013,0.001,-49.65,2.85,-50.55,1883.0
1787130776.6955884,-2.318,-0.453,9.438,-0.016,0.009,0.001,-48.75,3.75,-50.4,1883.0
1787130776.9002442,-2.289,-0.484,9.505,-0.013,0.006,0.003,-48.75,4.95,-51.45,1817.0
1787130776.9003026,-2.406,-0.431,9.462,-0.013,0.014,-0.003,-49.35,4.35,-50.85,1817.0
1787130776.9003093,-2.301,-0.445,9.474,-0.012,0.01,0.003,-48.75,4.95,-50.7,1817.0
1787130777.1053069,-2.365,-0.397,9.471,-0.015,0.006,-0.004,-49.5,4.95,-49.2,1864.0
1787130777.1053324,-2.253,-0.395,9.39,-0.015,0.01,-0.001,-48.9,5.1,-50.1,1864.0
1787130777.1053443,-2.392,-0.364,9.438,-0.016,0.006,-0.005,-48.75,3.45,-49.65,1864.0
1787130777.3087418,-2.274,-0.467,9.503,-0.012,0.01,-0.003,-48.9,4.8,-50.55,1888.0
1787130777.308768,-2.301,-0.402,9.531,-0.011,0.016,-0.001,-48.15,4.05,-51.3,1888.0
1787130777.308779,-2.318,-0.373,9.436,-0.017,0.018,-0.003,-49.05,4.2,-51.45,1888.0
1787130777.5133011,-2.418,-0.412,9.562,-0.014,0.009,-0.003,-48.3,4.5,-50.7,1837.0
1787130777.5133276,-2.239,-0.39,9.467,-0.02,0.014,0.001,-48.6,3.15,-51.3,1884.0
1787130777.5133388,-2.298,-0.345,9.481,-0.015,0.013,-0.003,-48.15,3.15,-49.35,1884.0
1787130777.7198362,-2.298,-0.417,9.428,-0.011,0.003,0.002,-49.05,4.95,-51.75,1848.0
1787130777.719874,-2.325,-0.381,9.436,-0.018,0.005,-0.004,-49.05,4.5,-50.4,1849.0
1787130777.7198858,-2.251,-0.421,9.459,-0.016,0.002,-0.009,-48.3,3.75,-50.4,1849.0
1787130777.9329312,-2.296,-0.371,9.471,-0.011,0.014,-0.005,-48.6,4.35,-49.8,1835.0
1787130777.9329655,-2.303,-0.45,9.479,-0.02,0.012,-0.008,-48.15,2.85,-50.55,1870.0
1787130777.932977,-2.344,-0.45,9.529,-0.022,0.015,-0.003,-48.6,5.1,-50.85,1870.0
1787130778.129237,-2.32,-0.402,9.452,-0.015,0.021,-0.004,-48.6,3.6,-51.6,1891.0
1787130778.1292627,-2.332,-0.469,9.428,-0.014,0.016,-0.002,-48.75,3.0,-50.7,1891.0
1787130778.129274,-2.332,-0.397,9.481,-0.013,0.013,-0.002,-48.9,4.35,-48.75,1906.0
1787130778.3335795,-2.344,-0.4,9.457,-0.013,0.015,0.0,-48.3,1.8,-50.4,1878.0
1787130778.3336053,-2.315,-0.426,9.486,-0.014,0.013,-0.006,-47.85,4.05,-49.8,1878.0
1787130778.3336172,-2.389,-0.445,9.491,-0.01,-0.003,-0.006,-47.1,3.6,-49.8,1836.0
1787130778.5375066,-2.291,-0.395,9.407,-0.016,0.001,-0.004,-47.4,2.85,-50.85,1836.0
1787130778.5375311,-2.306,-0.479,9.462,-0.021,0.005,-0.001,-48.6,3.6,-49.8,1836.0
1787130778.5375423,-2.342,-0.397,9.443,-0.016,0.008,-0.004,-48.15,4.05,-49.35,1836.0
1787130778.7419894,-2.375,-0.424,9.395,-0.02,0.003,0.001,-47.7,4.2,-50.4,1876.0
1787130778.7420156,-2.263,-0.421,9.45,-0.018,0.006,-0.004,-48.0,4.2,-49.95,1876.0
1787130778.7420268,-2.272,-0.433,9.479,-0.01,0.006,-0.007,-47.85,4.05,-49.35,1870.0
1787130778.946767,-2.356,-0.448,9.467,-0.02,0.007,0.002,-49.5,3.45,-51.45,1870.0
1787130778.9467921,-2.33,-0.441,9.471,-0.012,0.002,0.0,-47.7,3.75,-51.0,1870.0
1787130778.9468038,-2.227,-0.378,9.483,-0.018,0.007,-0.006,-48.15,3.15,-50.55,1870.0
1787130779.1530695,-2.342,-0.395,9.519,-0.015,0.015,-0.001,-48.9,3.15,-50.85,1909.0
1787130779.1530962,-2.332,-0.4,9.469,-0.017,0.01,0.004,-48.6,4.35,-50.85,1909.0
1787130779.1531074,-2.332,-0.438,9.481,-0.015,0.007,0.004,-48.3,4.95,-49.95,1909.0
1787130779.356968,-2.373,-0.436,9.471,-0.016,0.015,-0.003,-49.35,4.35,-50.55,1844.0
1787130779.3571775,-2.346,-0.39,9.448,-0.019,0.016,0.0,-47.1,5.1,-50.1,1844.0
1787130779.3571856,-2.401,-0.369,9.479,-0.018,0.024,-0.002,-48.3,4.2,-48.9,1844.0
1787130779.5590823,-2.425,-0.431,9.488,-0.02,-0.004,-0.005,-48.15,5.1,-50.85,1864.0
1787130779.7668922,-2.344,-0.457,9.431,-0.012,0.014,-0.001,-49.35,2.1,-49.8,1872.0
1787130779.7669184,-2.334,-0.453,9.498,-0.02,0.015,-0.005,-48.75,4.2,-51.45,1872.0
1787130779.7669303,-2.337,-0.457,9.491,-0.014,0.013,-0.012,-48.3,4.5,-48.9,1872.0
1787130779.9749823,-2.344,-0.438,9.474,-0.019,0.007,-0.006,-49.35,4.05,-51.6,1828.0
1787130779.9751809,-2.286,-0.385,9.471,-0.023,0.014,-0.005,-48.3,5.7,-50.4,1882.0
1787130779.9751894,-2.272,-0.455,9.503,-0.015,0.022,0.0,-48.0,1.8,-49.65,1882.0
1787130780.1761072,-2.318,-0.445,9.467,-0.016,0.011,-0.002,-48.6,3.15,-50.55,1843.0
1787130780.1761322,-2.351,-0.395,9.55,-0.02,0.007,0.0,-48.9,4.8,-50.1,1822.0
1787130780.1761434,-2.363,-0.417,9.483,-0.013,0.007,-0.008,-48.3,3.75,-50.4,1822.0
1787130780.3811474,-2.327,-0.383,9.462,-0.013,0.008,-0.001,-49.5,4.2,-51.0,1853.0
1787130780.3811944,-2.344,-0.421,9.452,-0.015,0.009,-0.003,-46.2,4.95,-49.95,1899.0
1787130780.3812015,-2.337,-0.426,9.459,-0.017,-0.001,-0.004,-48.9,4.05,-49.05,1899.0
1787130780.7911904,-2.346,-0.407,9.426,-0.019,0.006,-0.004,-48.3,3.45,-48.45,1894.0
1787130780.7912157,-2.318,-0.381,9.452,-0.023,0.014,-0.001,-48.75,3.45,-51.0,1894.0
1787130780.7912276,-2.342,-0.402,9.428,-0.019,0.008,0.003,-48.75,4.2,-50.7,1894.0
1787130780.995569,-2.313,-0.455,9.469,-0.016,0.006,0.001,-48.3,4.2,-49.2,1824.0
1787130780.995595,-2.272,-0.385,9.436,-0.013,0.011,-0.007,-49.8,4.2,-48.9,1824.0
1787130780.9956062,-2.373,-0.474,9.445,-0.017,0.015,-0.006,-48.15,3.6,-50.55,1878.0
1787130781.200705,-2.361,-0.472,9.44,-0.017,0.006,-0.001,-48.6,3.15,-49.8,1853.0
1787130781.2007308,-2.382,-0.453,9.491,-0.018,0.008,-0.001,-48.0,4.5,-50.4,1894.0
1787130781.4051127,-2.277,-0.417,9.491,-0.02,0.016,-0.014,-48.3,4.5,-50.7,1852.0
1787130781.4051387,-2.291,-0.45,9.455,-0.013,0.016,-0.014,-48.9,4.05,-50.55,1852.0
1787130781.405151,-2.401,-0.431,9.464,-0.014,0.006,-0.004,-47.85,4.05,-50.55,1852.0
1787130781.6095755,-2.346,-0.438,9.491,-0.025,0.014,-0.001,-48.15,3.15,-50.55,1861.0
1787130781.6096013,-2.315,-0.412,9.431,-0.014,0.015,-0.003,-48.0,4.2,-50.4,1861.0
1787130781.6096125,-2.365,-0.455,9.445,-0.02,0.014,-0.005,-49.65,3.15,-50.55,1861.0
1787130781.8143182,-2.306,-0.453,9.457,-0.016,0.008,0.001,-48.3,4.2,-49.95,1866.0
1787130781.814343,-2.344,-0.436,9.44,-0.024,0.005,0.002,-47.85,4.05,-49.35,1866.0
1787130781.8143542,-2.334,-0.438,9.462,-0.016,0.002,-0.007,-49.35,3.6,-49.35,1866.0
1787130782.0201154,-2.272,-0.4,9.479,-0.022,0.007,-0.015,-49.05,3.0,-49.2,1826.0
1787130782.0202644,-2.279,-0.388,9.462,-0.014,0.015,-0.005,-48.75,3.75,-50.7,1826.0
1787130782.2251415,-2.265,-0.431,9.445,-0.015,0.014,-0.007,-49.35,4.8,-49.35,1844.0
1787130782.225168,-2.377,-0.419,9.4,-0.017,0.006,0.001,-49.8,4.5,-49.65,1844.0
1787130782.22518,-2.342,-0.419,9.467,-0.021,0.005,-0.001,-48.6,6.3,-49.8,1844.0
1787130782.4294813,-2.284,-0.445,9.469,-0.011,0.005,-0.006,-48.15,4.05,-49.35,1879.0
1787130782.4295063,-2.325,-0.417,9.438,-0.014,0.015,-0.009,-47.85,4.05,-50.1,1868.0
1787130782.4295173,-2.339,-0.383,9.44,-0.018,0.011,-0.005,-48.15,3.6,-48.75,1868.0
1787130782.633492,-2.265,-0.462,9.404,-0.02,0.0,0.0,-48.0,4.2,-51.0,1882.0
1787130782.633518,-2.289,-0.417,9.476,-0.018,0.008,-0.002,-48.6,3.6,-49.35,1810.0
1787130782.6335297,-2.306,-0.409,9.5,-0.018,0.012,-0.006,-47.85,4.05,-50.85,1810.0
1787130782.836203,-2.306,-0.45,9.443,-0.013,0.003,0.0,-48.0,2.25,-49.95,1829.0
1787130783.0427222,-2.32,-0.424,9.481,-0.015,0.005,0.001,-47.25,4.5,-49.2,1854.0
1787130783.0427465,-2.298,-0.445,9.467,-0.015,0.005,-0.006,-50.1,4.35,-49.8,1854.0
1787130783.0427582,-2.296,-0.4,9.481,-0.013,0.006,0.005,-47.4,6.3,-48.75,1854.0
1787130783.2483606,-2.318,-0.443,9.457,-0.012,0.006,-0.005,-49.5,3.45,-51.0,1787.0
1787130783.248386,-2.385,-0.455,9.431,-0.011,0.015,-0.004,-48.15,3.6,-48.75,1787.0
1787130783.2483974,-2.284,-0.45,9.481,-0.013,0.01,-0.002,-48.3,4.5,-50.4,1787.0
1787130783.453837,-2.318,-0.371,9.459,-0.021,0.014,0.001,-47.4,4.05,-49.8,1893.0
1787130783.4538693,-2.294,-0.419,9.491,-0.023,0.013,0.004,-48.75,3.75,-49.95,1893.0
1787130783.6584136,-2.377,-0.45,9.488,-0.016,0.012,-0.002,-48.75,3.45,-48.9,1863.0
1787130783.6584399,-2.349,-0.443,9.479,-0.017,0.007,-0.003,-46.35,4.05,-49.8,1863.0
1787130783.6584518,-2.286,-0.436,9.536,-0.011,0.011,0.0,-48.75,2.7,-49.65,1863.0
1787130784.0675826,-2.286,-0.424,9.5,-0.013,0.018,-0.003,-47.4,4.05,-49.8,1866.0
1787130784.2731469,-2.313,-0.393,9.459,-0.02,0.009,-0.01,-48.15,2.1,-49.35,1849.0
1787130784.2731724,-2.308,-0.421,9.476,-0.018,0.005,-0.001,-48.6,2.85,-50.85,1849.0
1787130784.273184,-2.318,-0.429,9.433,-0.015,0.013,-0.005,-47.4,3.15,-50.55,1849.0
1787130784.480727,-2.303,-0.402,9.428,-0.017,0.006,0.006,-50.4,3.6,-50.55,1838.0
1787130784.4807518,-2.361,-0.369,9.481,-0.019,0.0,-0.005,-48.15,4.05,-49.35,1838.0
1787130784.4807632,-2.227,-0.369,9.515,-0.014,-0.001,-0.005,-50.25,4.2,-51.0,1792.0
1787130784.681149,-2.21,-0.429,9.419,-0.01,0.01,-0.004,-47.4,5.1,-49.05,1894.0
1787130784.6812205,-2.296,-0.352,9.505,-0.021,-0.003,-0.007,-48.3,3.45,-49.65,1894.0
1787130784.8866994,-2.246,-0.438,9.469,-0.012,0.013,-0.001,-48.3,2.7,-50.4,1879.0
1787130784.8867252,-2.32,-0.441,9.505,-0.017,0.008,-0.003,-48.75,4.5,-51.0,1885.0
1787130784.886737,-2.342,-0.381,9.491,-0.013,0.006,-0.005,-48.15,1.65,-50.85,1885.0
1787130785.0911212,-2.284,-0.385,9.486,-0.013,0.003,0.002,-47.4,4.05,-50.85,1873.0
1787130785.0911465,-2.277,-0.378,9.471,-0.017,0.008,-0.002,-46.65,3.6,-51.6,1873.0
1787130785.091158,-2.274,-0.402,9.488,-0.017,0.01,-0.003,-47.85,4.05,-51.3,1867.0
1787130785.297068,-2.251,-0.436,9.483,-0.011,0.012,-0.01,-47.1,4.35,-50.85,1880.0
1787130785.2970936,-2.272,-0.438,9.512,-0.023,0.01,-0.006,-48.0,3.0,-51.0,1880.0
1787130785.2971048,-2.368,-0.424,9.474,-0.015,0.013,0.007,-49.05,3.45,-49.65,1857.0
1787130785.5009234,-2.291,-0.364,9.486,-0.012,0.007,0.001,-47.4,4.35,-50.1,1933.0
1787130785.5009491,-2.284,-0.407,9.452,-0.011,0.007,0.002,-47.7,4.2,-50.4,1933.0
1787130785.5009604,-2.272,-0.443,9.491,-0.015,0.004,0.002,-48.6,2.85,-49.35,1876.0
1787130785.910686,-2.337,-0.421,9.412,-0.012,0.012,-0.003,-48.15,4.35,-50.55,1912.0
1787130785.9120586,-2.274,-0.4,9.469,-0.015,-0.001,-0.001,-48.75,5.4,-50.7,1912.0
1787130786.1144195,-2.289,-0.385,9.414,-0.018,0.01,-0.004,-48.15,4.35,-51.6,1867.0
1787130786.32074,-2.296,-0.4,9.5,-0.014,0.012,-0.005,-48.75,5.7,-51.0,1870.0
1787130786.3207653,-2.234,-0.462,9.488,-0.011,0.009,-0.01,-48.6,3.6,-50.55,1870.0
1787130786.3207777,-2.308,-0.373,9.443,-0.02,0.005,0.002,-48.0,4.2,-50.7,1870.0
1787130786.5285466,-2.263,-0.378,9.493,-0.02,0.006,-0.003,-47.4,3.15,-50.55,1859.0
1787130786.5285716,-2.193,-0.417,9.481,-0.012,0.006,-0.007,-47.4,3.15,-49.8,1865.0
1787130786.528582,-2.217,-0.407,9.445,-0.015,0.007,-0.002,-47.85,2.4,-50.55,1865.0
1787130786.7271104,-2.267,-0.412,9.486,-0.021,0.011,-0.001,-49.65,3.6,-49.8,1872.0
1787130786.7315562,-2.306,-0.366,9.45,-0.009,0.015,0.003,-47.25,2.7,-49.95,1883.0
1787130786.7315717,-2.308,-0.314,9.5,-0.016,0.007,-0.006,-48.15,3.6,-51.6,1883.0
1787130786.9376116,-2.246,-0.417,9.503,-0.019,0.014,-0.008,-46.95,3.75,-50.4,1852.0
1787130786.9376376,-2.332,-0.414,9.464,-0.021,0.005,-0.004,-47.25,4.2,-49.95,1852.0
1787130786.9376493,-2.246,-0.441,9.505,-0.02,0.001,-0.001,-48.6,4.35,-50.85,1852.0
1787130787.1397583,-2.291,-0.39,9.436,-0.012,0.006,0.004,-49.5,2.7,-50.4,1886.0
1787130787.1397836,-2.291,-0.46,9.45,-0.02,-0.004,0.004,-48.3,3.75,-50.7,1752.0
1787130787.1397946,-2.265,-0.424,9.421,-0.016,0.002,-0.001,-49.05,4.2,-51.0,1752.0
1787130787.3501208,-2.205,-0.362,9.519,-0.02,0.007,-0.004,-48.3,3.75,-49.95,1900.0
1787130787.3501453,-2.306,-0.33,9.479,-0.024,-0.004,0.011,-49.5,4.2,-50.4,1920.0
1787130787.3501568,-2.186,-0.481,9.51,-0.016,0.014,-0.003,-48.0,4.2,-51.75,1920.0
1787130787.550628,-2.277,-0.39,9.476,-0.018,0.015,-0.005,-47.4,6.3,-51.45,1908.0
1787130787.550653,-2.282,-0.455,9.491,-0.015,0.009,-0.007,-47.7,3.45,-50.4,1886.0
1787130787.5506644,-2.272,-0.395,9.512,-0.021,0.005,0.0,-48.9,4.35,-51.3,1886.0
1787130787.9582183,-2.246,-0.409,9.457,-0.014,0.006,-0.003,-49.65,4.8,-50.1,1879.0
1787130787.9582427,-2.222,-0.414,9.512,-0.015,0.01,-0.013,-49.05,4.2,-49.2,1879.0
1787130787.9582536,-2.234,-0.373,9.507,-0.012,0.014,-0.002,-49.35,4.05,-51.3,1879.0
1787130788.1654382,-2.325,-0.376,9.519,-0.013,0.018,-0.006,-47.25,4.95,-49.2,1915.0
1787130788.1654642,-2.308,-0.419,9.498,-0.015,0.005,-0.008,-49.5,4.2,-49.95,1915.0
1787130788.367927,-2.184,-0.443,9.409,-0.018,0.009,-0.001,-47.85,5.1,-50.1,1853.0
1787130788.3679514,-2.277,-0.433,9.4,-0.02,0.007,-0.004,-48.9,3.15,-49.8,1853.0
1787130788.3679626,-2.303,-0.407,9.505,-0.019,0.003,-0.009,-48.9,3.15,-50.85,1853.0
1787130788.5737028,-2.215,-0.419,9.462,-0.018,0.003,-0.003,-48.9,5.55,-51.6,1889.0
1787130788.5737288,-2.243,-0.457,9.45,-0.011,0.005,0.003,-48.15,4.05,-49.8,1889.0
1787130788.57374,-2.296,-0.405,9.493,-0.018,0.005,-0.004,-47.7,4.95,-50.7,1889.0
1787130788.778822,-2.365,-0.464,9.438,-0.013,0.009,-0.001,-48.15,4.35,-49.35,1867.0
1787130788.778848,-2.246,-0.436,9.462,-0.019,0.013,-0.003,-47.4,3.15,-51.6,1867.0
1787130788.7788732,-2.253,-0.436,9.512,-0.014,0.013,-0.005,-46.5,3.45,-52.2,1867.0
1787130788.9835684,-2.251,-0.338,9.541,0.009,0.012,-0.012,-46.65,4.35,-52.05,1865.0
1787130788.983594,-2.368,-0.405,9.476,0.012,-0.027,0.024,-49.65,3.15,-50.55,1865.0
1787130788.9836047,-2.169,-0.484,9.328,0.003,-0.023,0.02,-48.15,2.85,-50.85,1865.0
1787130789.1880455,-2.48,-0.381,9.45,-0.009,0.035,-0.003,-48.3,3.45,-50.7,1902.0
1787130789.188069,-2.555,-0.338,9.428,-0.011,-0.021,-0.01,-47.85,3.15,-51.6,1902.0
1787130789.1880755,-2.399,-0.306,9.524,-0.007,-0.076,-0.015,-48.75,4.5,-49.65,1902.0
1787130789.3915381,-2.224,-0.261,9.455,-0.016,0.001,-0.002,-49.05,4.95,-51.0,1906.0
1787130789.597204,-2.26,-0.318,9.524,-0.023,-0.058,-0.017,-48.15,3.6,-50.55,1928.0
1787130789.5972242,-1.978,-0.448,9.541,-0.024,-0.061,-0.01,-48.6,4.35,-50.1,1928.0
1787130789.5972304,-1.963,-0.357,9.505,-0.019,-0.045,-0.004,-48.15,3.6,-50.85,1887.0
1787130789.801652,-2.162,-0.342,9.538,0.0,0.049,-0.002,-48.9,4.35,-50.55,1911.0
1787130790.0066829,-1.891,-0.558,9.467,0.006,0.042,0.0,-48.9,2.1,-51.6,1921.0
1787130790.0067084,-2.085,-0.412,9.333,-0.018,0.088,-0.002,-49.05,3.45,-49.95,1921.0
1787130790.0067198,-2.243,-0.34,9.395,-0.025,0.036,-0.018,-49.05,4.2,-49.95,1949.0
1787130790.2111382,-2.121,-0.328,9.483,-0.011,-0.007,-0.006,-47.4,4.35,-49.35,1932.0
1787130790.2111652,-2.052,-0.357,9.459,-0.011,0.003,-0.009,-47.7,3.0,-51.0,1932.0
1787130790.2111764,-2.042,-0.352,9.498,-0.015,0.007,-0.005,-47.7,3.0,-51.0,1932.0
1787130790.4178016,-2.267,-0.364,9.471,-0.019,0.018,0.002,-47.1,4.05,-52.05,1903.0
1787130790.4178278,-2.133,-0.297,9.481,-0.02,0.023,0.001,-47.25,4.5,-51.75,1903.0
1787130790.4178393,-2.265,-0.311,9.424,-0.016,0.003,-0.013,-48.9,3.6,-49.35,1903.0
1787130790.6209157,-2.246,-0.316,9.594,-0.01,0.055,-0.004,-48.75,5.4,-50.4,1899.0
1787130790.6209416,-2.229,-0.249,9.601,-0.021,0.036,0.011,-48.15,3.15,-49.8,1899.0
1787130790.8264446,-2.234,-0.247,9.606,-0.026,-0.068,-0.016,-47.4,5.1,-50.85,1932.0
1787130790.8264694,-2.289,-0.433,9.464,-0.015,-0.05,-0.046,-49.05,3.0,-49.65,1932.0
1787130790.8264806,-1.951,-0.539,9.503,-0.018,-0.048,0.014,-47.4,4.35,-52.05,1932.0
1787130791.028651,-2.116,-0.371,9.512,-0.01,0.054,0.011,-47.4,3.6,-51.6,1916.0
1787130791.2362072,-2.207,-0.323,9.51,-0.018,0.014,0.004,-47.85,3.6,-50.1,1940.0
1787130791.2362344,-2.227,-0.314,9.493,-0.015,0.015,-0.006,-48.6,2.85,-50.1,1911.0
1787130791.2362459,-2.286,-0.345,9.515,-0.013,0.007,0.001,-47.25,3.75,-49.95,1911.0
1787130791.441664,-2.241,-0.345,9.507,-0.01,0.0,0.003,-48.3,2.25,-49.65,1839.0
1787130791.4416888,-2.222,-0.333,9.517,-0.011,-0.003,0.001,-47.4,2.85,-51.6,1903.0
1787130791.4417,-2.248,-0.342,9.469,-0.018,-0.005,-0.001,-47.4,4.35,-51.3,1903.0
1787130791.6454923,-2.155,-0.316,9.483,-0.021,0.005,-0.005,-48.3,3.75,-51.0,1927.0
1787130791.6455173,-2.224,-0.385,9.503,-0.015,0.002,-0.007,-47.85,4.35,-50.55,1957.0
1787130791.8492405,-2.251,-0.388,9.486,-0.02,0.01,-0.009,-48.3,3.75,-49.95,1928.0
1787130792.059276,-2.212,-0.409,9.491,-0.02,0.003,-0.007,-48.6,4.05,-52.35,1884.0
1787130792.0593016,-2.167,-0.33,9.524,-0.017,0.009,-0.002,-46.95,4.2,-51.0,1913.0
1787130792.0593126,-2.234,-0.326,9.524,-0.018,0.002,-0.009,-47.7,3.0,-50.7,1913.0
1787130792.259739,-2.112,-0.412,9.483,-0.012,0.003,-0.007,-46.95,2.7,-50.7,1983.0
1787130792.259763,-2.205,-0.347,9.479,-0.017,0.013,0.006,-48.15,3.6,-49.8,1983.0
1787130792.2597744,-2.21,-0.405,9.428,-0.01,0.012,-0.005,-48.9,2.4,-51.6,1876.0
1787130792.4653842,-2.241,-0.369,9.486,-0.016,0.004,-0.003,-48.15,2.4,-50.55,1913.0
1787130792.4654095,-2.164,-0.39,9.493,-0.02,0.006,-0.001,-48.6,4.05,-51.6,1913.0
1787130792.4654217,-2.234,-0.354,9.524,-0.021,0.011,0.002,-49.35,2.1,-51.3,1934.0
1787130792.680237,-2.246,-0.335,9.476,-0.013,0.013,-0.004,-47.7,2.7,-50.4,1972.0
1787130792.6802626,-2.205,-0.354,9.483,-0.012,0.006,0.001,-48.0,3.0,-49.2,1972.0
1787130792.680274,-2.243,-0.402,9.522,-0.019,0.007,-0.004,-48.3,3.0,-51.0,1972.0
1787130793.0792215,-2.174,-0.366,9.448,-0.018,0.011,0.0,-47.4,3.15,-52.8,1916.0
1787130793.079247,-2.222,-0.39,9.536,-0.016,0.012,-0.004,-47.1,3.6,-50.1,1916.0
1787130793.0793066,-2.162,-0.4,9.553,-0.021,0.005,-0.001,-47.4,4.35,-50.85,1916.0
1787130793.2846863,-2.162,-0.354,9.512,-0.019,0.011,-0.005,-47.4,5.55,-51.6,1916.0
1787130793.2847114,-2.234,-0.354,9.469,-0.016,0.002,-0.003,-49.65,4.05,-52.35,1916.0
1787130793.2847228,-2.246,-0.297,9.464,-0.012,0.003,0.001,-47.85,5.55,-51.3,1916.0
1787130793.4877691,-2.164,-0.388,9.443,-0.016,0.009,0.007,-48.3,3.45,-51.0,1921.0
1787130793.4877954,-2.131,-0.378,9.522,-0.015,0.008,-0.01,-47.1,2.1,-50.55,1921.0
1787130793.4878078,-2.212,-0.364,9.462,-0.017,0.011,0.005,-49.05,3.75,-50.7,1921.0
1787130793.6940794,-2.191,-0.412,9.479,-0.018,0.012,-0.002,-47.85,4.05,-50.55,1917.0
1787130793.694105,-2.255,-0.364,9.457,-0.016,0.016,-0.001,-47.7,3.75,-50.4,1873.0
1787130793.6941164,-2.227,-0.359,9.503,-0.017,0.013,-0.002,-48.9,3.6,-50.1,1873.0
1787130794.1037893,-2.174,-0.373,9.488,-0.014,0.0,0.001,-47.1,4.8,-51.3,1977.0
1787130794.1038163,-2.231,-0.35,9.5,-0.016,0.005,-0.001,-48.0,4.2,-51.45,1977.0
1787130794.309394,-2.169,-0.326,9.555,-0.019,0.016,-0.005,-48.0,3.75,-50.4,1909.0
1787130794.3094199,-2.176,-0.366,9.495,-0.013,0.016,-0.006,-48.15,4.05,-50.55,1909.0
1787130794.309431,-2.215,-0.388,9.507,-0.016,0.016,-0.004,-49.05,3.0,-49.2,1921.0
1787130794.512707,-2.167,-0.378,9.498,-0.022,0.018,-0.005,-48.15,4.35,-50.85,1891.0
1787130794.5127316,-2.191,-0.402,9.445,-0.02,0.013,-0.002,-48.3,2.7,-49.95,1891.0
1787130794.5127432,-2.246,-0.352,9.431,-0.019,-0.001,0.002,-47.4,4.35,-49.8,1891.0
1787130794.7179127,-2.186,-0.335,9.507,-0.02,0.001,-0.011,-48.75,1.8,-50.7,1875.0
1787130794.7179384,-2.157,-0.409,9.493,-0.017,0.007,-0.007,-47.25,3.75,-49.65,1875.0
1787130794.7179496,-2.167,-0.359,9.51,-0.019,0.007,0.006,-47.85,2.85,-50.85,1875.0
1787130794.9223633,-2.04,-0.393,9.512,-0.018,0.003,-0.005,-47.85,2.4,-51.6,1940.0
1787130794.9223874,-2.179,-0.364,9.476,-0.008,0.007,-0.004,-48.0,3.0,-51.0,1940.0
1787130794.9223986,-2.181,-0.4,9.483,-0.012,0.009,-0.01,-47.1,3.6,-51.3,1940.0
1787130795.127446,-2.198,-0.34,9.488,-0.017,0.009,-0.003,-47.25,3.45,-51.45,1940.0
1787130795.1274705,-2.207,-0.378,9.5,-0.014,0.007,-0.001,-48.6,4.8,-51.6,1940.0
1787130795.127483,-2.126,-0.39,9.548,-0.012,0.011,-0.001,-48.0,3.0,-51.0,1940.0
1787130795.3317192,-2.241,-0.369,9.486,-0.016,0.008,-0.001,-47.4,4.05,-50.1,1926.0
1787130795.3339138,-2.236,-0.462,9.507,-0.016,0.013,-0.003,-47.85,4.35,-51.6,1926.0
1787130795.5450954,-2.14,-0.354,9.498,-0.015,0.011,0.001,-47.7,5.7,-49.95,1912.0
1787130795.7482462,-2.205,-0.352,9.538,-0.011,-0.011,-0.004,-50.1,3.6,-50.85,1949.0
1787130795.748273,-2.083,-0.376,9.534,-0.028,-0.014,0.012,-47.7,4.5,-50.7,1949.0
1787130796.1541293,-2.167,-0.369,9.527,-0.015,0.004,-0.001,-48.15,4.8,-52.05,1956.0
1787130796.1541555,-2.162,-0.371,9.467,-0.018,0.009,-0.002,-48.6,2.1,-49.8,1911.0
1787130796.1541677,-2.116,-0.431,9.536,-0.019,0.007,-0.004,-47.85,3.6,-50.55,1911.0
1787130796.358116,-2.162,-0.316,9.515,-0.015,0.007,0.0,-48.15,4.05,-52.2,1913.0
1787130796.3581462,-2.205,-0.354,9.464,-0.019,-0.009,0.001,-48.15,3.6,-51.6,1954.0
1787130796.3581526,-2.14,-0.369,9.481,-0.014,-0.002,0.003,-49.35,3.6,-49.8,1954.0
1787130796.5611417,-2.095,-0.373,9.534,-0.018,0.004,0.004,-47.4,2.4,-50.85,1948.0
1787130796.5611806,-2.102,-0.34,9.536,-0.014,0.004,-0.006,-48.3,4.5,-50.4,1948.0
1787130796.770165,-2.116,-0.395,9.486,-0.014,0.013,-0.007,-48.0,3.0,-49.95,1930.0
1787130796.7702005,-2.152,-0.395,9.558,-0.014,0.01,-0.004,-48.75,3.75,-50.7,1940.0
1787130796.7702076,-2.162,-0.273,9.515,-0.014,0.009,-0.002,-47.85,3.6,-50.85,1940.0
1787130796.9824631,-2.152,-0.378,9.541,-0.015,0.007,-0.006,-47.85,4.8,-50.85,1898.0
1787130796.9824898,-2.152,-0.294,9.543,-0.016,0.008,0.003,-47.85,1.65,-50.55,1906.0
1787130797.1744256,-2.097,-0.328,9.527,-0.019,0.005,-0.004,-46.65,3.15,-50.85,1977.0
1787130797.1744545,-2.136,-0.376,9.507,-0.013,0.007,-0.008,-48.3,4.2,-49.95,1977.0
1787130797.1744661,-2.143,-0.35,9.505,-0.019,0.01,-0.001,-50.1,4.05,-52.8,1949.0
1787130797.3810766,-2.162,-0.373,9.519,-0.012,0.014,-0.006,-48.75,3.45,-51.0,1911.0
1787130797.3811011,-2.157,-0.39,9.543,-0.019,0.012,-0.004,-48.75,3.45,-51.0,1911.0
1787130797.3811123,-2.188,-0.378,9.553,-0.013,0.007,-0.003,-48.75,4.2,-51.0,1911.0
1787130797.7958639,-2.102,-0.364,9.507,-0.014,0.01,0.003,-48.15,3.15,-50.85,1971.0
1787130797.9939137,-2.085,-0.4,9.515,-0.012,0.01,-0.002,-48.6,3.15,-50.85,1937.0
1787130797.99394,-2.09,-0.311,9.495,-0.022,0.018,0.001,-49.05,3.45,-52.2,1967.0
1787130797.993952,-2.136,-0.395,9.512,-0.013,0.017,-0.003,-49.5,4.5,-50.4,1967.0
1787130798.20539,-2.066,-0.383,9.515,-0.014,0.022,-0.003,-48.0,2.7,-50.7,1952.0
1787130798.2054157,-2.114,-0.347,9.471,-0.016,0.014,-0.004,-48.15,2.85,-51.6,1952.0
1787130798.2054272,-2.064,-0.335,9.541,-0.018,0.012,-0.007,-48.15,4.05,-50.55,1952.0
1787130798.4048603,-2.121,-0.376,9.476,-0.019,0.01,-0.001,-47.1,4.05,-50.85,1894.0
1787130798.404887,-2.083,-0.323,9.522,-0.015,0.008,0.001,-49.35,2.1,-50.55,1894.0
1787130798.4048986,-2.143,-0.402,9.51,-0.016,0.013,-0.005,-47.7,2.7,-50.4,1894.0
1787130798.6094058,-2.128,-0.371,9.562,-0.016,0.01,-0.001,-47.25,2.7,-50.7,1894.0
1787130798.6094317,-2.14,-0.381,9.562,-0.015,0.014,-0.009,-47.7,2.7,-49.95,1894.0
1787130798.6094427,-2.126,-0.388,9.524,-0.016,0.009,-0.004,-49.5,3.45,-50.7,1946.0
1787130798.8194118,-2.167,-0.347,9.498,-0.012,0.003,0.004,-48.3,3.45,-51.45,1885.0
1787130798.8194368,-2.105,-0.373,9.495,-0.02,0.006,-0.003,-47.4,4.8,-51.3,1963.0
1787130799.0231092,-2.105,-0.328,9.527,-0.015,0.015,-0.001,-47.85,4.05,-51.3,1963.0
1787130799.0231352,-2.057,-0.419,9.503,-0.02,0.014,-0.007,-46.35,2.85,-51.3,1933.0
1787130799.2248988,-2.16,-0.335,9.548,-0.014,0.007,-0.003,-48.3,3.75,-50.7,1960.0
1787130799.2249238,-2.184,-0.342,9.479,-0.021,0.008,-0.003,-47.85,4.05,-50.85,1960.0
1787130799.2249348,-2.03,-0.362,9.574,-0.02,0.002,-0.005,-47.4,4.35,-51.3,1960.0
1787130799.4276266,-2.131,-0.302,9.491,-0.016,0.004,-0.004,-48.9,4.35,-49.35,1906.0
1787130799.4276521,-2.145,-0.345,9.491,-0.019,0.003,-0.007,-46.95,3.75,-51.45,1906.0
1787130799.4276633,-2.143,-0.366,9.57,-0.019,0.009,-0.006,-46.5,3.45,-50.4,1906.0
1787130799.6324675,-2.09,-0.39,9.505,-0.015,0.012,-0.007,-50.25,4.5,-51.0,1914.0
1787130799.6324937,-2.116,-0.395,9.467,-0.015,0.009,-0.006,-49.05,2.7,-52.2,1914.0
1787130799.6325052,-2.093,-0.395,9.558,-0.018,0.014,-0.005,-49.05,2.7,-52.2,1914.0
1787130799.8341045,-2.155,-0.405,9.491,-0.013,0.005,0.001,-47.1,2.85,-50.55,1885.0
1787130799.8388975,-2.112,-0.323,9.541,-0.019,0.007,0.003,-47.85,4.05,-51.3,1885.0
1787130799.838923,-2.1,-0.357,9.572,-0.013,0.007,-0.004,-48.3,3.45,-51.75,1885.0
1787130800.042129,-2.102,-0.39,9.51,-0.015,0.007,-0.005,-48.75,4.5,-51.45,1923.0
1787130800.254139,-2.186,-0.412,9.531,-0.01,0.013,-0.001,-49.5,2.25,-51.45,1937.0
1787130800.254165,-2.109,-0.397,9.483,-0.015,0.006,0.004,-47.25,3.0,-50.7,1937.0
1787130800.2541766,-2.167,-0.335,9.55,-0.018,0.005,-0.007,-48.6,3.6,-50.55,1937.0
1787130800.4521067,-2.136,-0.275,9.565,-0.014,0.01,-0.003,-47.85,2.85,-52.05,1938.0
1787130800.452132,-2.143,-0.302,9.512,-0.012,0.009,-0.006,-47.25,1.8,-51.45,1938.0
1787130800.4521432,-2.088,-0.354,9.553,-0.012,0.009,-0.001,-49.05,3.0,-51.45,1938.0
1787130800.657628,-2.124,-0.419,9.481,-0.012,0.008,-0.001,-48.15,4.05,-52.05,1993.0
1787130800.6576533,-2.181,-0.39,9.531,-0.023,0.012,0.004,-47.4,3.6,-51.6,1993.0
1787130800.6576648,-2.1,-0.342,9.488,-0.017,-0.001,-0.001,-47.4,2.85,-50.55,1993.0
1787130800.8612587,-2.114,-0.33,9.505,-0.013,0.012,-0.002,-48.75,2.7,-52.5,1900.0
1787130800.861284,-2.071,-0.335,9.543,-0.015,0.007,-0.006,-47.4,3.6,-51.6,1900.0
1787130801.0680978,-2.097,-0.352,9.5,-0.02,0.008,-0.007,-47.4,4.05,-51.3,1913.0
1787130801.0681236,-2.131,-0.34,9.562,-0.011,0.009,-0.006,-47.4,4.8,-51.3,1913.0
1787130801.068138,-2.162,-0.359,9.534,-0.017,0.008,-0.007,-50.1,1.65,-52.05,1939.0
1787130801.2703633,-2.088,-0.354,9.469,-0.016,0.005,-0.002,-48.15,2.1,-50.1,1908.0
1787130801.2703893,-2.09,-0.388,9.531,-0.014,0.006,-0.001,-49.65,3.15,-51.6,1908.0
1787130801.2704008,-2.105,-0.347,9.538,-0.016,0.012,-0.007,-47.85,3.15,-51.3,1908.0
1787130801.478399,-2.097,-0.34,9.529,-0.015,0.022,-0.005,-48.75,2.7,-51.0,1974.0
1787130801.4784243,-2.16,-0.33,9.56,-0.02,0.015,-0.001,-47.4,3.6,-50.85,1974.0
1787130801.47848,-2.093,-0.373,9.474,-0.02,0.014,0.004,-48.6,3.15,-51.3,1950.0
1787130801.6799603,-2.148,-0.364,9.555,-0.016,0.015,-0.003,-48.75,4.2,-51.0,1873.0
1787130801.679989,-2.136,-0.419,9.491,-0.014,0.011,-0.007,-48.15,2.85,-50.1,1873.0
1787130801.6800003,-2.114,-0.405,9.498,-0.022,0.009,-0.007,-47.7,3.45,-50.4,1873.0
1787130801.8851764,-2.112,-0.366,9.522,-0.017,0.01,-0.002,-47.25,2.25,-51.75,1903.0
1787130801.8852026,-2.088,-0.378,9.488,-0.017,0.006,-0.003,-49.35,4.05,-50.85,1903.0
1787130801.885214,-2.131,-0.362,9.479,-0.015,0.005,-0.003,-46.5,4.2,-50.7,1903.0
1787130802.090238,-2.191,-0.35,9.517,-0.014,0.021,-0.003,-47.7,3.45,-50.7,1902.0
1787130802.0902636,-2.179,-0.395,9.543,-0.018,0.019,-0.006,-48.75,2.7,-51.45,1902.0
1787130802.090275,-2.133,-0.395,9.562,-0.019,0.006,0.0,-47.7,1.8,-50.4,1902.0
1787130802.2955666,-2.145,-0.352,9.436,-0.019,0.01,-0.001,-48.9,4.8,-51.3,1921.0
1787130802.2955918,-2.167,-0.414,9.519,-0.023,0.012,-0.003,-47.85,3.15,-52.05,1921.0
1787130802.49915,-2.152,-0.359,9.56,-0.017,0.001,-0.002,-48.9,3.15,-51.3,1943.0
1787130802.7044003,-2.069,-0.345,9.519,-0.013,0.012,0.0,-48.0,3.75,-51.0,1913.0
1787130802.704427,-2.102,-0.366,9.498,-0.016,0.013,-0.001,-47.85,3.6,-51.3,1868.0
1787130802.7044384,-2.126,-0.335,9.531,-0.019,0.012,-0.001,-48.15,3.6,-50.1,1868.0
1787130802.9089005,-2.172,-0.383,9.467,-0.015,0.01,-0.001,-49.05,5.4,-49.95,1957.0
1787130802.9089253,-2.15,-0.35,9.498,-0.016,0.006,0.001,-49.05,3.45,-52.2,1957.0
1787130802.9089367,-2.167,-0.309,9.555,-0.019,0.002,0.001,-49.05,1.8,-51.0,1938.0
1787130803.1140585,-2.143,-0.333,9.476,-0.007,0.005,0.003,-47.85,4.05,-51.6,1917.0
1787130803.1140833,-2.16,-0.381,9.527,-0.018,0.003,-0.01,-47.25,3.45,-51.0,1915.0
1787130803.1140947,-2.172,-0.371,9.515,-0.006,0.007,0.002,-48.0,3.0,-50.4,1915.0
1787130803.3184552,-2.071,-0.364,9.529,-0.019,0.01,-0.003,-48.6,2.85,-50.1,1923.0
1787130803.318481,-2.1,-0.338,9.493,-0.013,0.014,-0.001,-48.6,3.15,-50.85,1918.0
1787130803.3184924,-2.131,-0.369,9.507,-0.012,0.011,0.004,-46.5,4.2,-51.0,1918.0
1787130803.5241761,-2.093,-0.362,9.512,-0.013,0.011,-0.001,-48.0,3.0,-51.45,1931.0
1787130803.524201,-2.131,-0.347,9.495,-0.014,0.013,0.001,-49.5,3.0,-50.4,1931.0
1787130803.7279618,-2.21,-0.311,9.534,-0.018,0.011,0.001,-47.7,3.45,-51.0,1969.0
1787130803.7279913,-2.121,-0.383,9.5,-0.013,0.004,-0.005,-47.4,4.35,-51.3,1969.0
1787130803.728116,-2.083,-0.354,9.505,-0.013,0.012,-0.007,-48.15,4.05,-52.35,1913.0
1787130803.934465,-2.124,-0.371,9.527,-0.018,0.005,-0.001,-48.75,2.7,-50.7,1913.0
1787130803.93449,-2.184,-0.378,9.503,-0.017,0.011,-0.001,-46.95,2.7,-52.5,1919.0
1787130803.934501,-2.143,-0.338,9.524,-0.013,0.009,-0.002,-48.0,3.45,-51.0,1919.0
1787130804.1374958,-2.186,-0.369,9.56,-0.016,0.01,-0.001,-48.6,4.35,-50.1,1919.0
1787130804.3422055,-2.126,-0.369,9.474,-0.02,0.006,0.001,-48.0,3.75,-50.7,1945.0
1787130804.342231,-2.143,-0.364,9.486,-0.016,0.013,-0.005,-48.9,3.15,-50.85,1945.0
1787130804.3422425,-2.109,-0.362,9.486,-0.013,0.013,-0.003,-48.15,2.85,-51.3,1945.0
1787130804.547023,-2.133,-0.33,9.538,-0.019,0.01,-0.003,-48.6,3.15,-51.3,1950.0
1787130804.7542899,-2.184,-0.364,9.538,-0.015,0.006,0.005,-48.3,2.7,-49.65,1900.0
1787130804.7543159,-2.131,-0.395,9.495,-0.015,0.013,-0.001,-48.6,4.35,-52.05,1900.0
1787130804.7543275,-2.126,-0.362,9.534,-0.016,0.012,0.001,-48.6,4.35,-52.05,1900.0
1787130804.957656,-2.184,-0.359,9.553,-0.016,0.012,-0.007,-46.65,4.35,-51.3,1900.0
1787130804.9576817,-2.157,-0.388,9.515,-0.02,0.007,-0.001,-46.65,4.35,-51.3,1900.0
1787130804.957693,-2.1,-0.402,9.543,-0.012,0.006,0.002,-47.1,4.05,-51.3,1927.0
1787130805.1621435,-2.2,-0.431,9.474,-0.014,0.003,0.003,-47.4,3.15,-51.3,1940.0
1787130805.1621695,-2.167,-0.376,9.505,-0.018,0.003,0.0,-48.3,2.25,-50.7,1940.0
1787130805.162181,-2.152,-0.318,9.55,-0.014,0.008,-0.001,-47.4,3.6,-52.05,1940.0
1787130805.366641,-2.179,-0.362,9.541,-0.016,0.006,-0.001,-48.75,3.75,-51.45,1914.0
1787130805.3666675,-2.157,-0.376,9.558,-0.015,0.015,0.002,-49.5,3.0,-51.45,1902.0
1787130805.3666787,-2.157,-0.357,9.457,-0.007,0.01,-0.006,-48.15,4.05,-51.3,1902.0
1787130805.5710924,-2.203,-0.369,9.476,-0.015,0.009,0.003,-48.0,5.4,-51.0,1915.0
1787130805.5711172,-2.128,-0.359,9.493,-0.013,0.009,-0.004,-48.0,3.75,-50.4,1975.0
1787130805.5711284,-2.176,-0.287,9.519,-0.014,0.005,0.004,-48.6,3.15,-51.3,1975.0
1787130805.9824553,-2.09,-0.342,9.531,-0.018,0.005,-0.006,-48.6,2.85,-50.85,1919.0
1787130805.9824812,-2.105,-0.354,9.443,-0.015,0.01,-0.004,-48.3,3.45,-49.65,1919.0
1787130805.9824924,-2.222,-0.357,9.512,-0.022,0.006,0.004,-47.4,3.15,-52.05,1919.0
1787130806.1862042,-2.145,-0.395,9.522,-0.013,0.005,-0.001,-48.15,4.8,-50.1,1966.0
1787130806.1862295,-2.088,-0.347,9.452,-0.016,0.011,-0.005,-49.5,3.45,-51.0,1966.0
1787130806.1862407,-2.124,-0.402,9.517,-0.013,0.016,-0.007,-48.15,3.15,-51.6,1966.0
1787130806.3904357,-2.219,-0.362,9.522,-0.011,0.009,0.003,-49.05,4.2,-49.95,1938.0
1787130806.390461,-2.167,-0.316,9.495,-0.018,0.005,-0.001,-48.3,4.5,-50.4,1938.0
1787130806.3904724,-2.145,-0.318,9.517,-0.017,0.012,-0.001,-48.3,2.7,-51.75,1938.0
1787130806.5951884,-2.164,-0.39,9.486,-0.016,0.011,-0.003,-48.9,2.85,-50.85,2005.0
1787130806.5952132,-2.157,-0.335,9.498,-0.021,0.006,-0.003,-47.1,3.6,-51.6,2005.0
1787130806.5952244,-2.167,-0.402,9.498,-0.02,0.009,-0.004,-49.5,4.5,-49.95,2005.0
1787130806.8023708,-2.176,-0.412,9.474,-0.011,0.008,-0.002,-48.6,2.4,-50.1,1888.0
1787130806.8023975,-2.138,-0.366,9.505,-0.015,0.013,-0.003,-46.65,3.15,-50.85,1888.0
1787130806.8024085,-2.172,-0.321,9.491,-0.02,0.007,-0.006,-48.0,2.7,-51.0,1888.0
1787130807.005704,-2.09,-0.311,9.469,-0.015,0.015,-0.007,-46.95,2.7,-51.0,1934.0
1787130807.0057292,-2.231,-0.383,9.531,-0.012,0.014,-0.005,-48.15,4.8,-50.85,1934.0
1787130807.0057406,-2.047,-0.354,9.505,-0.02,0.013,-0.007,-48.75,3.75,-51.45,1934.0
1787130807.2095864,-2.212,-0.35,9.534,-0.016,0.01,-0.003,-48.15,4.35,-50.55,1948.0
1787130807.209612,-2.169,-0.381,9.467,-0.019,0.01,-0.002,-46.95,3.75,-50.4,1948.0
1787130807.2096233,-2.145,-0.34,9.522,-0.021,0.005,-0.001,-47.7,4.5,-50.4,1948.0
1787130807.4123352,-2.148,-0.424,9.483,-0.016,0.005,0.001,-48.15,3.6,-52.8,1960.0
1787130807.6190379,-2.105,-0.354,9.536,-0.018,0.007,-0.001,-47.1,3.6,-51.3,1936.0
1787130807.6190653,-2.066,-0.328,9.431,-0.021,0.011,-0.002,-48.75,3.45,-49.95,1914.0
1787130807.619079,-2.148,-0.311,9.527,-0.019,0.014,-0.002,-47.4,3.15,-50.55,1914.0
1787130807.8241363,-2.184,-0.287,9.51,-0.02,0.014,-0.005,-48.9,3.15,-51.3,1942.0
1787130807.824161,-2.164,-0.378,9.5,-0.024,0.01,-0.002,-49.05,3.75,-50.4,1942.0
1787130807.824172,-2.093,-0.326,9.486,-0.012,0.007,0.001,-47.4,2.4,-50.55,1897.0
1787130808.030404,-2.136,-0.376,9.507,-0.016,0.007,0.004,-47.85,3.6,-51.3,1947.0
1787130808.0304308,-2.174,-0.314,9.531,-0.015,0.01,-0.001,-48.75,4.2,-48.45,1947.0
1787130808.0304422,-2.198,-0.359,9.538,-0.015,-0.001,-0.007,-46.65,4.05,-50.1,1917.0
1787130808.2320895,-2.102,-0.352,9.5,-0.021,0.012,0.001,-48.6,4.05,-50.85,1947.0
1787130808.2368233,-2.181,-0.362,9.5,-0.013,0.006,-0.002,-48.6,3.6,-49.8,1947.0
1787130808.2368488,-2.193,-0.347,9.567,-0.017,0.006,-0.003,-47.1,4.8,-51.6,1912.0
1787130808.4386327,-2.145,-0.342,9.55,-0.015,0.005,-0.01,-47.25,2.7,-50.7,1916.0
1787130808.4386587,-2.131,-0.352,9.495,-0.015,0.009,-0.001,-48.75,3.0,-49.2,1916.0
1787130808.4386706,-2.219,-0.376,9.538,-0.015,0.015,-0.005,-47.25,3.45,-51.45,1916.0
1787130808.643748,-2.14,-0.373,9.471,-0.015,0.016,0.002,-48.75,3.75,-51.0,1950.0
1787130808.6437736,-2.181,-0.345,9.541,-0.013,0.013,0.006,-47.4,4.05,-51.6,1950.0
1787130808.643785,-2.162,-0.333,9.529,-0.011,0.011,-0.003,-49.35,3.6,-49.8,1950.0
1787130808.848575,-2.097,-0.338,9.512,-0.019,0.005,0.0,-48.75,2.7,-51.0,1933.0
1787130808.8486004,-2.116,-0.309,9.56,-0.014,0.008,-0.005,-48.3,4.5,-50.4,1933.0
1787130808.848612,-2.114,-0.364,9.5,-0.013,0.01,-0.005,-47.7,3.45,-50.7,1933.0
1787130809.052722,-2.145,-0.342,9.483,-0.016,0.007,-0.001,-47.7,4.2,-51.45,1909.0
1787130809.0527482,-2.124,-0.326,9.467,-0.016,0.011,0.003,-47.85,3.15,-48.75,1909.0
1787130809.2575598,-2.179,-0.33,9.462,-0.021,0.013,-0.002,-47.7,3.75,-51.45,1925.0
1787130809.2575855,-2.174,-0.29,9.498,-0.018,0.012,0.002,-47.7,4.2,-51.75,1925.0
1787130809.2576437,-2.148,-0.419,9.517,-0.017,0.014,-0.001,-47.7,3.0,-51.0,1925.0
1787130809.4624546,-2.109,-0.354,9.519,-0.014,0.011,-0.001,-47.85,3.6,-51.3,1933.0
1787130809.6682122,-2.109,-0.342,9.471,-0.014,0.012,-0.002,-48.15,3.15,-50.1,1917.0
1787130809.6682365,-2.179,-0.354,9.493,-0.018,0.013,-0.003,-48.15,3.6,-50.55,1917.0
1787130809.6682475,-2.16,-0.326,9.495,-0.014,0.013,-0.005,-47.4,3.6,-50.85,1917.0
1787130810.0778978,-2.176,-0.28,9.534,-0.013,0.011,-0.003,-48.9,2.1,-51.3,1903.0
1787130810.0779238,-2.116,-0.364,9.534,-0.016,0.01,-0.004,-48.6,2.4,-50.85,1903.0
1787130810.0779357,-2.231,-0.409,9.495,-0.015,0.014,0.001,-47.4,2.4,-49.05,1953.0
1787130810.2814896,-2.179,-0.373,9.543,-0.02,0.012,-0.002,-48.6,3.15,-50.1,1920.0
1787130810.2815144,-2.176,-0.359,9.519,-0.019,0.007,0.003,-47.7,4.2,-50.7,1920.0
1787130810.2815259,-2.176,-0.354,9.488,-0.012,0.011,-0.005,-48.15,3.15,-49.8,1945.0
1787130810.486468,-2.176,-0.357,9.491,-0.011,0.009,-0.004,-47.85,4.35,-50.55,1943.0
1787130810.486493,-2.157,-0.45,9.527,-0.02,0.008,-0.004,-47.7,2.7,-48.45,1943.0
1787130810.4865048,-2.152,-0.402,9.474,-0.015,0.006,-0.001,-47.85,3.6,-50.55,1928.0
1787130810.6892076,-2.16,-0.314,9.505,-0.018,0.003,-0.004,-48.6,4.05,-50.85,1948.0
1787130810.896771,-2.128,-0.323,9.565,-0.012,0.014,0.005,-49.5,3.45,-51.0,1928.0
1787130810.896797,-2.14,-0.359,9.534,-0.013,0.023,0.004,-48.0,3.75,-50.7,1928.0
1787130810.8968084,-2.224,-0.333,9.471,-0.018,0.015,0.001,-48.15,3.15,-50.85,1928.0
1787130811.1008506,-2.191,-0.359,9.5,-0.015,0.012,-0.005,-48.15,2.85,-49.8,1928.0
1787130811.1008842,-2.188,-0.373,9.493,-0.017,0.013,0.001,-47.7,3.0,-51.75,1928.0
1787130811.1008956,-2.193,-0.371,9.553,-0.016,0.007,-0.003,-48.3,3.45,-49.95,1928.0
1787130811.306051,-2.16,-0.364,9.507,-0.014,0.011,-0.006,-47.85,4.05,-51.6,1926.0
1787130811.3060744,-2.176,-0.309,9.457,-0.018,0.003,-0.002,-47.25,3.75,-51.0,1926.0
1787130811.3060858,-2.205,-0.362,9.493,-0.015,0.006,0.001,-48.3,1.8,-51.45,1926.0
1787130811.5108774,-2.174,-0.381,9.515,-0.015,0.005,0.002,-48.15,4.35,-49.35,1925.0
1787130811.5109031,-2.152,-0.369,9.488,-0.023,0.018,-0.006,-47.25,3.0,-51.0,1925.0
1787130811.5109146,-2.164,-0.33,9.527,-0.011,0.018,-0.001,-48.6,3.6,-50.55,1925.0
1787130811.7178006,-2.128,-0.378,9.505,-0.015,0.011,-0.004,-48.15,3.15,-51.3,1895.0
1787130811.7178261,-2.241,-0.345,9.495,-0.015,0.003,-0.001,-48.15,3.15,-50.85,1895.0
1787130811.7178376,-2.229,-0.304,9.541,-0.015,0.0,0.001,-47.7,3.0,-50.7,1895.0
1787130811.922327,-2.224,-0.354,9.495,-0.018,0.004,-0.002,-46.95,3.45,-51.0,1917.0
1787130812.12535,-2.179,-0.39,9.522,-0.019,0.01,-0.001,-47.4,3.6,-50.1,1965.0
1787130812.1253757,-2.157,-0.371,9.517,-0.019,0.007,-0.01,-48.9,4.8,-50.55,1965.0
1787130812.1253877,-2.219,-0.383,9.479,-0.022,0.004,0.0,-46.95,2.25,-49.65,1965.0
1787130812.3294146,-2.176,-0.366,9.495,-0.022,0.009,-0.001,-48.15,3.15,-50.55,1910.0
1787130812.3294382,-2.184,-0.371,9.438,-0.018,0.016,-0.005,-47.1,4.35,-50.55,1910.0
1787130812.535846,-2.116,-0.352,9.51,-0.019,0.007,-0.007,-46.95,2.7,-51.0,1931.0
1787130812.53588,-2.205,-0.376,9.538,-0.016,0.011,-0.006,-47.4,3.15,-50.55,1931.0
1787130812.5358918,-2.186,-0.321,9.488,-0.014,0.01,-0.002,-49.35,2.4,-52.35,1950.0
1787130812.739634,-2.2,-0.409,9.476,-0.014,0.008,-0.006,-47.7,3.75,-51.45,1923.0
1787130812.7396593,-2.14,-0.342,9.471,-0.017,0.001,-0.004,-48.6,3.15,-50.55,1923.0
1787130812.7396708,-2.121,-0.397,9.452,-0.017,0.003,-0.001,-49.05,3.0,-50.7,1953.0
1787130812.944413,-2.138,-0.352,9.517,-0.015,0.005,-0.006,-48.9,3.15,-50.85,1943.0
1787130812.944438,-2.121,-0.311,9.486,-0.016,0.006,-0.006,-48.0,2.25,-51.45,1943.0
1787130812.9444492,-2.188,-0.362,9.555,-0.016,0.0,-0.01,-47.4,3.15,-51.6,1943.0
1787130813.1505919,-2.167,-0.354,9.562,-0.019,0.006,-0.002,-48.0,2.7,-49.2,1969.0
1787130813.1506176,-2.1,-0.359,9.527,-0.014,0.019,0.001,-47.25,4.2,-51.0,1969.0
1787130813.1506293,-2.217,-0.381,9.515,-0.017,0.015,0.002,-48.9,4.35,-51.6,1969.0
1787130813.354609,-2.174,-0.326,9.534,-0.016,0.01,-0.001,-48.6,4.05,-51.6,1958.0
1787130813.3546345,-2.179,-0.369,9.51,-0.015,0.006,-0.002,-48.75,3.75,-51.75,1958.0
1787130813.5591602,-2.128,-0.335,9.519,-0.015,0.011,0.005,-48.9,5.1,-50.1,1944.0
1787130813.5591855,-2.205,-0.393,9.474,-0.018,0.011,-0.002,-49.35,4.05,-49.35,1944.0
1787130813.559197,-2.186,-0.357,9.517,-0.018,0.008,-0.003,-48.0,3.45,-50.4,1944.0
1787130813.7635396,-2.219,-0.314,9.515,-0.01,0.005,-0.008,-48.3,3.75,-51.75,1951.0
1787130813.7635677,-2.167,-0.323,9.527,-0.015,0.004,-0.001,-48.3,2.25,-51.0,1951.0
1787130813.7635794,-2.109,-0.354,9.527,-0.021,0.009,-0.002,-48.9,4.35,-50.1,1951.0
1787130813.9665887,-2.267,-0.395,9.438,-0.014,0.007,0.001,-47.1,1.35,-51.3,1984.0
1787130814.1728747,-2.16,-0.261,9.565,-0.02,0.013,0.001,-48.9,4.05,-50.55,1875.0
1787130814.1728997,-2.21,-0.371,9.515,-0.016,0.007,-0.005,-47.85,4.35,-50.85,1926.0
1787130814.1729114,-2.224,-0.342,9.486,-0.016,0.002,-0.003,-48.0,4.5,-50.7,1926.0
1787130814.3803678,-2.15,-0.364,9.553,-0.018,0.007,-0.003,-46.95,3.75,-49.65,1931.0
1787130814.3803933,-2.109,-0.33,9.476,-0.01,0.011,-0.005,-48.15,3.15,-50.55,1931.0
1787130814.5827742,-2.193,-0.417,9.505,-0.014,0.013,-0.003,-48.15,2.85,-50.85,1931.0
1787130814.5828004,-2.138,-0.35,9.491,-0.018,0.009,-0.008,-47.85,3.6,-50.1,1931.0
1787130814.5828116,-2.207,-0.366,9.495,-0.022,0.006,-0.003,-48.0,3.75,-50.4,1931.0
1787130814.788284,-2.181,-0.378,9.467,-0.019,0.005,-0.004,-47.25,3.0,-51.0,1929.0
1787130814.7883112,-2.212,-0.345,9.469,-0.019,0.009,-0.002,-47.7,4.95,-50.7,1912.0
1787130814.7883232,-2.172,-0.342,9.553,-0.015,0.013,-0.007,-48.0,3.0,-48.75,1912.0
1787130814.9929664,-2.188,-0.373,9.448,-0.021,-0.001,-0.004,-49.65,2.4,-51.6,1963.0
1787130814.9929945,-2.184,-0.388,9.505,-0.019,0.009,-0.005,-48.3,3.45,-49.65,1963.0
1787130814.993004,-2.176,-0.345,9.531,-0.014,0.017,-0.005,-48.9,4.05,-49.05,1932.0
1787130815.197592,-2.191,-0.359,9.555,-0.016,0.009,-0.004,-48.9,2.4,-51.3,1942.0
1787130815.1976178,-2.105,-0.39,9.459,-0.018,0.011,-0.004,-47.1,4.35,-52.35,1942.0
1787130815.1976292,-2.15,-0.314,9.462,-0.019,0.014,-0.005,-49.5,4.5,-51.0,1980.0
1787130815.402381,-2.188,-0.294,9.534,-0.015,0.012,-0.001,-48.15,2.85,-50.1,1925.0
1787130815.4024074,-2.21,-0.45,9.481,-0.016,0.014,-0.001,-48.75,4.95,-50.4,1925.0
1787130815.4024186,-2.198,-0.33,9.543,-0.02,0.007,0.001,-48.9,3.6,-50.85,1894.0
1787130815.811408,-2.265,-0.364,9.503,-0.012,0.008,-0.005,-48.75,3.75,-49.95,1934.0
1787130815.8114345,-2.143,-0.429,9.471,-0.019,0.006,-0.002,-49.35,3.6,-52.05,1934.0
1787130815.8114457,-2.219,-0.373,9.455,-0.016,0.009,0.003,-48.3,4.2,-50.7,1934.0
1787130816.016682,-2.155,-0.371,9.524,-0.019,0.006,-0.004,-47.25,4.2,-52.2,1915.0
1787130816.0167077,-2.215,-0.366,9.433,-0.015,0.013,-0.004,-47.1,2.85,-52.05,1915.0
1787130816.016719,-2.179,-0.364,9.5,-0.018,0.002,0.001,-49.05,3.0,-51.0,1915.0
1787130816.221542,-2.169,-0.362,9.491,-0.02,0.021,-0.006,-48.15,4.35,-50.85,1913.0
1787130816.2215676,-2.133,-0.407,9.479,-0.015,0.02,-0.005,-48.6,2.85,-50.85,1913.0
1787130816.221579,-2.217,-0.316,9.5,-0.018,0.01,0.001,-48.6,4.8,-50.1,1913.0
1787130816.4368474,-2.088,-0.366,9.51,-0.012,0.014,0.003,-48.0,3.45,-50.4,1959.0
1787130816.4368854,-2.205,-0.385,9.469,-0.017,0.012,0.001,-47.85,4.8,-50.55,1959.0
1787130816.4368966,-2.188,-0.369,9.464,-0.011,0.012,-0.003,-48.3,2.25,-51.0,1959.0
1787130816.630924,-2.179,-0.33,9.495,-0.019,0.004,-0.002,-48.3,3.45,-49.95,1876.0
1787130816.6309493,-2.107,-0.33,9.517,-0.014,0.005,-0.002,-47.7,3.0,-49.2,1876.0
1787130816.6309607,-2.222,-0.366,9.493,-0.02,0.007,0.005,-48.15,3.15,-50.1,1876.0
1787130816.8373764,-2.133,-0.352,9.459,-0.015,0.004,0.002,-48.75,3.75,-51.0,1939.0
1787130816.8374019,-2.124,-0.395,9.541,-0.014,0.013,-0.007,-48.6,3.6,-49.05,1936.0
1787130817.0408766,-2.179,-0.366,9.538,-0.015,0.007,0.002,-49.05,2.7,-51.75,1926.0
1787130817.0409014,-2.219,-0.354,9.519,-0.014,0.014,-0.003,-48.3,3.75,-51.75,1956.0
1787130817.0409133,-2.2,-0.369,9.562,-0.019,0.008,-0.001,-49.35,3.15,-50.1,1956.0
1787130817.2482388,-2.057,-0.421,9.529,-0.011,0.013,-0.002,-48.9,3.15,-50.85,1968.0
1787130817.2482636,-2.176,-0.409,9.445,-0.012,0.019,-0.001,-48.3,3.75,-49.95,1968.0
1787130817.2482753,-2.224,-0.33,9.519,-0.016,0.011,-0.001,-49.5,3.75,-51.0,1968.0
1787130817.4502177,-2.215,-0.364,9.522,-0.017,0.01,0.004,-47.85,4.05,-50.1,1933.0
1787130817.450298,-2.198,-0.321,9.486,-0.019,0.009,-0.005,-46.2,2.7,-51.75,1933.0
1787130817.4503105,-2.152,-0.357,9.498,-0.015,0.007,-0.003,-48.15,2.4,-50.85,1933.0
1787130817.6604128,-2.152,-0.338,9.527,-0.015,0.012,-0.004,-48.15,2.85,-51.6,1978.0
1787130817.660437,-2.148,-0.417,9.479,-0.014,0.013,0.001,-48.3,3.75,-51.0,1978.0
1787130817.6604486,-2.188,-0.381,9.555,-0.016,0.014,-0.006,-48.15,3.15,-50.55,1978.0
1787130817.8592343,-2.138,-0.381,9.505,-0.019,0.009,-0.002,-47.1,3.6,-50.1,1944.0
1787130818.064817,-2.176,-0.364,9.452,-0.019,0.007,-0.001,-48.3,5.7,-51.0,1917.0
1787130818.064843,-2.167,-0.376,9.519,-0.015,-0.002,-0.003,-47.25,1.8,-49.95,1917.0
1787130818.2690706,-2.143,-0.342,9.507,-0.016,0.009,-0.004,-47.7,3.45,-49.95,1903.0
1787130818.2690961,-2.138,-0.405,9.543,-0.016,0.015,-0.005,-47.25,3.0,-51.0,1903.0
1787130818.2691073,-2.152,-0.371,9.512,-0.018,0.012,-0.006,-48.75,1.8,-50.7,1903.0
1787130818.4737163,-2.263,-0.326,9.469,-0.019,0.013,0.0,-46.2,3.45,-51.75,1979.0
1787130818.4737391,-2.14,-0.397,9.476,-0.015,0.011,-0.004,-48.6,2.85,-50.85,1979.0
1787130818.4737506,-2.191,-0.314,9.493,-0.019,0.008,-0.005,-48.9,4.05,-50.85,1979.0
1787130818.6787784,-2.083,-0.302,9.459,-0.01,0.009,0.0,-47.7,3.0,-51.75,1929.0
1787130818.6788037,-2.167,-0.34,9.471,-0.013,0.016,-0.006,-48.6,2.4,-50.85,1929.0
1787130818.6788151,-2.239,-0.321,9.459,-0.022,0.004,-0.008,-47.85,2.85,-51.3,1929.0
1787130818.882813,-2.136,-0.364,9.483,-0.02,0.003,-0.003,-47.25,3.45,-51.75,1915.0
1787130818.8828378,-2.219,-0.345,9.562,-0.019,0.008,-0.002,-46.35,4.35,-51.6,1915.0
1787130819.0890582,-2.222,-0.35,9.531,-0.016,0.018,-0.01,-48.9,2.1,-50.1,1944.0
1787130819.0890837,-2.229,-0.402,9.5,-0.019,0.009,0.001,-47.7,1.05,-51.0,1944.0
1787130819.0890954,-2.186,-0.362,9.498,-0.019,0.009,0.003,-47.4,3.6,-50.55,1943.0
1787130819.293389,-2.186,-0.359,9.55,-0.015,0.012,-0.007,-46.95,3.75,-50.4,1908.0
1787130819.293414,-2.222,-0.376,9.498,-0.01,0.004,0.003,-48.15,2.85,-49.8,1908.0
1787130819.2934253,-2.164,-0.362,9.51,-0.019,0.006,-0.001,-48.6,3.15,-49.8,1939.0
1787130819.498152,-2.215,-0.302,9.512,-0.011,0.004,0.0,-48.15,3.6,-50.55,1915.0
1787130819.4981766,-2.105,-0.311,9.548,-0.02,0.005,-0.002,-49.05,4.2,-51.0,1915.0
1787130819.4981875,-2.184,-0.328,9.529,-0.014,0.011,-0.001,-48.15,0.9,-49.35,1937.0
1787130819.7022371,-2.2,-0.357,9.527,-0.017,0.02,-0.002,-48.75,4.05,-50.55,1961.0
1787130819.702263,-2.176,-0.342,9.512,-0.012,0.012,-0.003,-48.75,3.0,-51.0,1961.0
1787130819.7022753,-2.124,-0.393,9.476,-0.017,0.011,0.008,-48.3,2.7,-50.4,1976.0
1787130819.9052725,-2.222,-0.371,9.553,-0.013,0.013,-0.01,-48.15,4.05,-49.8,1932.0
1787130819.9080408,-2.215,-0.342,9.512,-0.016,0.005,0.002,-49.5,3.45,-52.2,1932.0
1787130820.1131737,-2.2,-0.376,9.522,-0.016,0.009,-0.003,-47.85,3.15,-52.35,1935.0
1787130820.1131988,-2.167,-0.345,9.517,-0.016,0.009,0.004,-47.85,1.65,-51.3,1935.0
1787130820.1132102,-2.224,-0.405,9.524,-0.012,0.004,-0.007,-48.6,4.05,-50.55,1935.0
1787130820.3174481,-2.217,-0.421,9.5,-0.012,0.006,-0.004,-48.15,1.65,-50.85,1872.0
1787130820.3174741,-2.131,-0.364,9.474,-0.013,0.011,-0.004,-49.5,4.5,-50.7,1872.0
1787130820.3174853,-2.227,-0.405,9.486,-0.012,0.007,-0.006,-47.85,3.15,-49.8,1872.0
1787130820.5212355,-2.112,-0.323,9.531,-0.014,-0.001,0.001,-48.15,4.05,-49.05,1912.0
1787130820.5212607,-2.217,-0.326,9.51,-0.016,0.001,-0.01,-46.95,3.45,-51.0,1912.0
1787130820.7266905,-2.138,-0.436,9.515,-0.015,0.004,-0.003,-48.6,4.35,-50.55,1936.0
1787130820.7267146,-2.145,-0.381,9.5,-0.018,0.005,-0.004,-48.15,3.15,-50.55,1955.0
1787130820.7267263,-2.116,-0.345,9.488,-0.015,0.007,-0.002,-48.75,3.75,-51.45,1955.0
1787130820.9312096,-2.078,-0.39,9.476,-0.013,0.011,0.004,-48.0,2.7,-51.0,1938.0
1787130820.9312336,-2.167,-0.342,9.488,-0.015,0.01,0.008,-48.75,2.25,-52.2,1938.0
1787130820.9312453,-2.231,-0.316,9.467,-0.018,-0.002,-0.001,-47.7,3.0,-51.75,1938.0
1787130821.1366186,-2.095,-0.472,9.517,-0.015,-0.031,0.004,-47.85,3.6,-50.85,1947.0
1787130821.1366441,-2.052,-0.34,9.512,-0.01,-0.007,-0.005,-47.25,4.2,-50.7,1955.0
1787130821.1366553,-2.049,-0.364,9.541,-0.018,0.007,-0.006,-48.0,2.7,-51.75,1955.0
1787130821.3408616,-2.085,-0.338,9.562,-0.02,0.013,-0.006,-48.75,3.0,-51.0,1957.0
1787130821.3408868,-2.105,-0.35,9.507,-0.008,0.013,-0.011,-48.0,3.75,-50.7,1935.0
1787130821.3408983,-2.083,-0.335,9.515,-0.009,0.01,-0.003,-48.6,4.05,-51.3,1935.0
1787130821.546591,-2.057,-0.395,9.519,-0.016,0.016,-0.001,-47.85,1.35,-50.1,1958.0
1787130821.5466163,-2.176,-0.352,9.522,-0.012,0.014,0.003,-47.4,4.05,-50.85,1933.0
1787130821.5466278,-2.109,-0.309,9.534,-0.012,0.01,-0.002,-48.15,4.8,-50.55,1933.0
1787130821.750609,-2.188,-0.34,9.567,-0.016,0.009,-0.005,-48.0,3.45,-49.95,1919.0
1787130821.750634,-2.107,-0.354,9.584,-0.014,0.0,0.006,-48.15,5.55,-51.6,1919.0
1787130821.7506459,-2.078,-0.345,9.55,-0.019,-0.009,-0.004,-49.65,4.8,-51.6,1919.0
1787130821.955409,-2.105,-0.383,9.527,-0.012,0.022,-0.002,-48.6,3.6,-52.35,1952.0
1787130821.9554343,-2.064,-0.342,9.491,-0.012,0.015,-0.003,-48.15,3.15,-50.55,1952.0
1787130821.9554453,-2.169,-0.29,9.5,-0.02,0.011,-0.003,-47.25,4.5,-51.75,1918.0
1787130822.1581726,-2.152,-0.39,9.51,-0.018,0.019,-0.005,-48.3,2.7,-50.7,1940.0
1787130822.3656955,-2.15,-0.306,9.479,-0.01,0.007,-0.002,-48.9,3.6,-51.3,1955.0
1787130822.3657207,-2.093,-0.409,9.517,-0.016,0.012,0.009,-49.05,2.7,-49.95,1955.0
1787130822.3657336,-2.059,-0.345,9.493,-0.018,0.017,-0.002,-48.9,5.1,-50.55,1955.0
1787130822.5704536,-2.095,-0.35,9.491,-0.02,0.02,0.0,-49.8,2.25,-50.7,1954.0
1787130822.5704792,-2.095,-0.292,9.534,-0.02,0.01,0.003,-47.7,2.25,-51.75,1954.0
1787130822.5704908,-2.121,-0.352,9.534,-0.015,0.01,0.001,-47.85,3.15,-50.85,1954.0
1787130822.775669,-2.061,-0.364,9.543,-0.013,0.005,-0.003,-47.85,3.15,-50.85,1967.0
1787130822.7756941,-2.112,-0.328,9.558,-0.007,-0.002,0.001,-46.95,2.7,-50.7,1967.0
1787130822.7757056,-2.088,-0.371,9.56,-0.01,0.01,-0.001,-47.1,2.4,-50.1,1967.0
1787130822.9794993,-2.167,-0.335,9.464,-0.013,0.01,0.001,-47.4,3.45,-50.4,1895.0
1787130822.9795249,-2.133,-0.306,9.522,-0.015,0.011,0.009,-46.2,3.75,-51.75,1895.0
1787130822.9795358,-2.109,-0.273,9.507,-0.016,0.013,-0.002,-48.0,3.75,-50.4,1895.0
1787130823.1847568,-2.15,-0.299,9.505,-0.014,0.011,-0.006,-49.8,5.4,-49.95,1901.0
1787130823.1847823,-2.145,-0.335,9.529,-0.016,0.009,-0.006,-46.95,3.45,-51.45,1901.0
1787130823.184795,-2.105,-0.328,9.512,-0.015,0.013,0.001,-47.7,3.75,-51.75,1901.0
1787130823.3894463,-2.119,-0.28,9.594,-0.02,0.013,-0.002,-49.65,3.6,-51.3,1933.0
1787130823.3894718,-2.109,-0.366,9.512,-0.016,0.012,0.003,-48.9,4.05,-51.3,1933.0
1787130823.389483,-2.157,-0.366,9.433,-0.017,0.018,0.001,-47.4,2.85,-51.3,1933.0
1787130823.5943415,-2.155,-0.362,9.495,-0.016,0.005,0.007,-47.25,3.75,-49.95,1932.0
1787130823.5943677,-2.133,-0.385,9.51,-0.018,0.011,-0.005,-47.7,3.75,-50.4,1932.0
1787130823.594379,-2.143,-0.323,9.5,-0.019,0.005,-0.007,-48.3,3.45,-51.45,1932.0
1787130823.7987874,-2.114,-0.326,9.519,-0.02,0.013,-0.003,-47.85,2.85,-50.85,1937.0
1787130824.0036309,-2.16,-0.321,9.515,-0.016,0.012,-0.001,-47.25,2.7,-52.5,1946.0
1787130824.003657,-2.188,-0.376,9.491,-0.013,0.006,-0.003,-46.95,1.5,-50.7,1946.0
1787130824.0036688,-2.136,-0.318,9.488,-0.013,0.005,0.0,-47.85,4.8,-51.6,1946.0
1787130824.2085335,-2.169,-0.316,9.474,-0.012,0.008,-0.003,-49.5,4.95,-51.0,1963.0
1787130824.2085583,-2.124,-0.333,9.464,-0.018,0.01,-0.001,-48.15,2.85,-50.1,1963.0
1787130824.20857,-2.119,-0.304,9.529,-0.017,0.011,0.004,-47.85,3.6,-50.55,1963.0
1787130824.413642,-2.174,-0.314,9.515,-0.014,0.005,-0.003,-47.7,3.0,-51.0,1916.0
1787130824.413667,-2.126,-0.342,9.491,-0.014,0.018,-0.013,-47.85,4.05,-52.05,1916.0
1787130824.4136786,-2.145,-0.321,9.527,-0.012,0.011,-0.005,-47.85,1.65,-51.3,1916.0
1787130824.618277,-2.114,-0.333,9.546,-0.012,0.014,-0.006,-49.05,3.45,-50.4,1911.0
1787130824.618302,-2.162,-0.261,9.476,-0.019,0.001,-0.009,-47.25,2.25,-50.7,1911.0
1787130824.6183138,-2.083,-0.323,9.517,-0.016,0.0,-0.005,-48.0,1.5,-50.7,1911.0
1787130824.822885,-2.112,-0.318,9.505,-0.012,0.005,-0.002,-48.0,5.4,-50.7,1939.0
1787130824.82291,-2.109,-0.362,9.55,-0.016,0.013,-0.006,-47.25,2.7,-51.45,1939.0
1787130824.823157,-2.121,-0.347,9.488,-0.018,0.008,-0.002,-49.05,4.5,-51.0,1939.0
1787130825.0277267,-2.069,-0.318,9.476,-0.016,-0.008,0.002,-48.0,3.0,-51.0,1890.0
1787130825.0277517,-2.215,-0.287,9.493,-0.018,0.007,-0.001,-47.7,3.75,-51.0,1890.0
1787130825.232935,-2.109,-0.292,9.512,-0.019,0.013,-0.005,-47.85,2.85,-51.3,1948.0
1787130825.23296,-2.107,-0.335,9.515,-0.011,0.01,-0.002,-48.0,3.0,-49.2,1948.0
1787130825.2329714,-2.088,-0.33,9.543,-0.019,0.013,-0.003,-47.85,1.65,-52.35,1948.0
1787130825.4350586,-2.061,-0.321,9.483,-0.024,0.018,0.002,-48.0,3.75,-51.0,1975.0
1787130825.6417344,-2.203,-0.304,9.548,-0.016,0.005,0.002,-47.1,3.6,-50.55,1959.0
1787130825.6417594,-2.119,-0.426,9.503,-0.014,0.007,-0.001,-48.15,2.85,-51.3,1959.0
1787130825.6417716,-2.14,-0.306,9.503,-0.014,0.009,-0.006,-48.15,3.6,-52.05,1941.0
1787130825.8464444,-2.136,-0.371,9.495,-0.02,0.01,-0.006,-48.15,3.15,-50.1,1926.0
1787130825.8464692,-2.088,-0.304,9.476,-0.018,0.011,-0.002,-48.15,2.85,-51.6,1926.0
1787130825.8464806,-2.114,-0.366,9.479,-0.015,0.009,-0.003,-48.15,4.8,-51.3,1970.0
1787130826.052068,-2.114,-0.34,9.464,-0.016,0.015,-0.006,-47.85,2.4,-50.1,1960.0
1787130826.0520942,-2.073,-0.359,9.471,-0.009,0.015,0.001,-47.85,3.15,-50.85,1928.0
1787130826.0521057,-2.138,-0.397,9.486,-0.018,0.008,-0.005,-47.85,4.05,-50.85,1928.0
1787130826.25868,-2.061,-0.362,9.536,-0.015,0.016,-0.004,-48.3,3.75,-52.5,1943.0
1787130826.258704,-2.133,-0.302,9.5,-0.012,0.014,-0.003,-47.7,3.75,-51.0,1943.0
1787130826.2587159,-2.169,-0.34,9.488,-0.022,0.009,0.003,-47.7,3.0,-52.2,1989.0
1787130826.4615319,-2.085,-0.357,9.515,-0.02,0.005,-0.009,-48.15,2.1,-49.8,1924.0
1787130826.4615564,-2.121,-0.362,9.507,-0.017,0.005,-0.008,-47.4,3.6,-50.55,1924.0
1787130826.4615672,-2.116,-0.306,9.505,-0.01,0.019,-0.004,-48.15,3.15,-49.8,1924.0
1787130826.6660535,-2.124,-0.345,9.486,-0.006,0.015,-0.001,-48.0,2.25,-50.4,1975.0
1787130826.6660821,-2.15,-0.364,9.469,-0.01,0.015,-0.002,-47.4,1.65,-50.55,1975.0
1787130826.6660936,-2.148,-0.359,9.519,-0.017,0.01,0.01,-48.0,2.25,-51.0,1975.0
1787130826.8706586,-2.152,-0.314,9.512,-0.014,0.007,-0.002,-48.9,2.4,-50.55,1967.0
1787130826.8706834,-2.126,-0.275,9.495,-0.022,0.012,0.003,-48.75,3.75,-48.45,1967.0
1787130826.8706946,-2.167,-0.342,9.524,-0.011,0.012,-0.003,-47.7,2.7,-51.75,1967.0
1787130827.0763352,-2.097,-0.378,9.452,-0.017,0.013,-0.001,-48.0,3.0,-51.0,1953.0
1787130827.0763605,-2.102,-0.304,9.517,-0.018,0.015,-0.01,-47.7,3.75,-50.4,1953.0
1787130827.2808995,-2.14,-0.328,9.517,-0.019,0.006,-0.004,-49.35,3.15,-51.3,1921.0
1787130827.2809253,-2.102,-0.34,9.486,-0.018,0.004,0.0,-49.5,2.25,-51.0,1928.0
1787130827.2809367,-2.145,-0.321,9.488,-0.015,0.014,0.001,-48.9,3.6,-51.6,1928.0
1787130827.4853106,-2.169,-0.306,9.527,-0.017,0.006,0.001,-48.0,4.5,-51.45,1881.0
1787130827.4853365,-2.164,-0.357,9.538,-0.012,0.006,-0.002,-48.3,3.75,-51.0,1881.0
1787130827.485348,-2.124,-0.385,9.443,-0.018,0.006,-0.003,-48.15,1.35,-52.05,1881.0
1787130827.689835,-2.16,-0.383,9.464,-0.016,0.009,-0.006,-47.25,5.4,-49.95,1977.0
1787130827.6898718,-2.061,-0.383,9.486,-0.016,0.006,0.003,-47.7,3.0,-50.4,1977.0
1787130827.6898837,-2.131,-0.328,9.493,-0.012,0.013,-0.009,-47.85,3.15,-50.1,1977.0
1787130827.8960829,-2.085,-0.381,9.495,-0.02,0.013,-0.003,-48.0,2.7,-51.0,1963.0
1787130827.8961015,-2.145,-0.323,9.5,-0.012,0.007,0.003,-48.6,3.6,-52.35,1963.0
1787130828.0994859,-2.148,-0.354,9.471,-0.014,0.019,-0.005,-49.65,1.35,-50.55,1934.0
1787130828.0995119,-2.167,-0.311,9.534,-0.014,0.011,-0.002,-46.5,3.0,-51.0,1974.0
1787130828.0995233,-2.107,-0.34,9.522,-0.015,0.007,0.0,-48.3,3.45,-50.4,1974.0
1787130828.3050644,-2.15,-0.333,9.522,-0.015,0.017,-0.002,-48.9,3.6,-50.1,1910.0
1787130828.3050935,-2.126,-0.338,9.488,-0.019,0.009,0.003,-47.4,3.15,-51.3,1910.0
1787130828.305105,-2.114,-0.302,9.493,-0.016,0.006,0.003,-48.15,3.6,-49.8,1933.0
1787130828.512686,-2.128,-0.333,9.495,-0.018,0.007,0.001,-47.85,5.1,-50.55,1927.0
1787130828.5127132,-2.21,-0.385,9.474,-0.015,0.007,-0.002,-49.05,4.95,-51.75,1927.0
1787130828.5127256,-2.14,-0.294,9.498,-0.014,0.011,0.001,-46.2,3.45,-49.95,1925.0
1787130828.7140806,-2.088,-0.311,9.538,-0.015,0.009,-0.002,-47.1,3.15,-52.05,1902.0
1787130828.9192026,-2.105,-0.29,9.536,-0.015,0.009,-0.003,-48.3,3.45,-51.0,1996.0
1787130828.9192271,-2.105,-0.321,9.51,-0.019,0.009,-0.003,-47.1,3.15,-49.8,1996.0
1787130828.9192386,-2.121,-0.304,9.471,-0.015,0.002,0.002,-48.15,3.6,-52.05,1996.0
1787130829.123605,-2.1,-0.259,9.481,-0.013,0.006,-0.002,-47.7,4.5,-51.45,1948.0
1787130829.1236293,-2.167,-0.366,9.517,-0.012,0.008,-0.004,-47.7,2.7,-52.95,1948.0
1787130829.1236405,-2.105,-0.338,9.536,-0.015,0.012,-0.004,-49.35,2.4,-51.6,1948.0
1787130829.328573,-2.145,-0.34,9.488,-0.014,0.015,-0.005,-48.15,3.6,-49.8,1944.0
1787130829.3286014,-2.207,-0.323,9.469,-0.013,0.012,0.003,-49.05,4.5,-51.45,1944.0
1787130829.3286126,-2.184,-0.338,9.498,-0.017,0.011,-0.001,-46.65,3.15,-50.85,1944.0
1787130829.5332468,-2.124,-0.328,9.5,-0.019,0.004,-0.002,-48.9,2.4,-52.35,1954.0
1787130829.5332708,-2.04,-0.323,9.517,-0.021,0.006,-0.002,-47.25,2.7,-51.45,1954.0
1787130829.533282,-2.157,-0.273,9.555,-0.018,0.013,-0.01,-46.65,2.1,-51.3,1954.0
1787130829.7385175,-2.107,-0.362,9.522,-0.014,0.014,-0.003,-47.85,3.6,-50.55,1947.0
1787130829.7385435,-2.124,-0.357,9.486,-0.016,0.007,-0.006,-47.7,3.75,-50.4,1947.0
1787130829.738555,-2.143,-0.29,9.548,-0.016,0.006,-0.004,-49.05,2.85,-51.6,1947.0
1787130829.9427938,-2.126,-0.362,9.507,-0.019,0.009,0.006,-47.85,3.15,-49.35,1973.0
1787130829.9428186,-2.124,-0.335,9.522,-0.022,0.005,-0.001,-48.3,3.0,-49.95,1973.0
1787130829.9428306,-2.116,-0.302,9.531,-0.015,0.014,-0.006,-48.0,2.7,-51.0,1973.0
1787130830.148142,-2.078,-0.297,9.538,-0.012,0.011,0.003,-47.85,4.8,-49.05,1952.0
1787130830.1481829,-2.109,-0.335,9.519,-0.015,0.02,-0.006,-48.6,3.6,-51.3,1972.0
1787130830.1481898,-2.157,-0.345,9.476,-0.018,0.018,0.001,-49.5,4.5,-49.95,1972.0
1787130830.3507862,-2.078,-0.33,9.548,-0.02,0.006,-0.006,-48.15,4.35,-49.35,1856.0
1787130830.5570762,-2.116,-0.357,9.522,-0.019,0.009,0.0,-48.3,4.2,-51.0,1922.0
1787130830.5571017,-2.188,-0.323,9.519,-0.016,0.014,-0.006,-47.1,3.6,-51.3,1922.0
1787130830.762586,-2.126,-0.378,9.538,-0.014,0.006,-0.003,-48.6,3.15,-50.55,1892.0
1787130830.7626123,-2.116,-0.294,9.452,-0.012,0.013,-0.001,-47.7,4.2,-51.45,1892.0
1787130830.762624,-2.162,-0.297,9.565,-0.021,0.012,0.003,-48.15,3.6,-49.8,1993.0
1787130830.968668,-2.145,-0.294,9.536,-0.015,0.01,-0.001,-48.15,3.15,-50.1,1951.0
1787130830.9686933,-2.15,-0.311,9.517,-0.014,0.015,-0.002,-47.25,2.7,-51.0,1946.0
1787130831.1721919,-2.136,-0.297,9.529,-0.017,-0.005,-0.003,-46.95,4.5,-51.45,1870.0
1787130831.172214,-2.095,-0.273,9.474,-0.019,-0.002,-0.001,-48.15,2.4,-50.1,1870.0
1787130831.1722205,-2.133,-0.314,9.486,-0.015,-0.003,0.014,-48.15,3.6,-50.85,1870.0
1787130831.3762903,-2.114,-0.357,9.486,-0.013,0.012,-0.003,-47.85,2.4,-50.85,1959.0
1787130831.376316,-2.107,-0.381,9.495,-0.016,0.009,-0.003,-46.65,1.35,-50.85,1959.0
1787130831.3763275,-2.112,-0.359,9.505,-0.015,0.015,0.003,-48.75,1.8,-49.2,1959.0
1787130831.5816312,-2.138,-0.347,9.527,-0.01,0.004,0.007,-47.4,2.4,-50.55,1975.0
1787130831.5816574,-2.128,-0.323,9.531,-0.011,0.007,-0.003,-46.5,3.75,-52.2,1975.0
1787130831.5816689,-2.186,-0.333,9.507,-0.007,0.01,-0.002,-48.0,3.0,-50.7,1975.0
1787130831.7858315,-2.09,-0.357,9.517,-0.019,-0.004,-0.002,-48.0,3.45,-50.4,1946.0
1787130831.7858617,-2.061,-0.273,9.481,-0.021,0.005,-0.003,-47.1,2.1,-50.85,1946.0
1787130831.9892526,-2.105,-0.316,9.515,-0.009,0.013,-0.005,-48.0,3.45,-51.45,1909.0
1787130832.1956158,-2.124,-0.283,9.519,-0.015,0.007,-0.013,-48.15,2.4,-50.85,1949.0
1787130832.1956406,-2.155,-0.294,9.471,-0.02,0.006,-0.005,-47.4,3.15,-49.8,1949.0
1787130832.1956527,-2.119,-0.393,9.517,-0.019,0.018,0.001,-48.75,3.0,-51.0,1949.0
1787130832.4008942,-2.152,-0.309,9.505,-0.014,0.011,-0.002,-48.75,3.75,-51.45,1917.0
1787130832.40092,-2.126,-0.309,9.582,-0.015,0.007,-0.002,-47.85,3.6,-51.6,1951.0
1787130832.4009311,-2.069,-0.278,9.503,-0.015,0.009,0.001,-47.7,4.2,-49.95,1951.0
1787130832.6052785,-2.107,-0.294,9.55,-0.015,0.005,0.003,-46.65,3.6,-50.55,1949.0
1787130832.6053047,-2.107,-0.268,9.527,-0.019,0.006,-0.004,-48.3,3.75,-49.65,1904.0
1787130832.6053643,-2.076,-0.335,9.493,-0.018,0.011,0.003,-48.3,2.7,-51.0,1904.0
1787130832.810661,-2.045,-0.266,9.538,-0.017,0.01,-0.008,-47.1,3.6,-51.3,1939.0
1787130832.8106863,-2.179,-0.333,9.493,-0.016,0.014,-0.006,-48.6,3.6,-51.6,1905.0
1787130832.8106976,-2.131,-0.306,9.519,-0.011,0.015,-0.002,-46.95,1.8,-50.7,1905.0
1787130833.0153077,-2.097,-0.335,9.476,-0.019,0.001,-0.005,-48.15,4.35,-50.55,1982.0
1787130833.0153334,-2.131,-0.28,9.5,-0.016,0.007,-0.005,-48.3,3.45,-50.4,1982.0
1787130833.0153449,-2.057,-0.314,9.522,-0.014,0.012,-0.006,-49.8,1.8,-49.95,1948.0
1787130833.2205827,-2.162,-0.309,9.493,-0.018,0.011,0.001,-48.75,3.75,-50.7,1960.0
1787130833.2206087,-2.133,-0.306,9.481,-0.019,0.011,-0.002,-47.85,1.65,-50.55,1960.0
1787130833.2206204,-2.14,-0.316,9.507,-0.017,0.014,0.004,-47.7,3.0,-51.0,1960.0
1787130833.4242442,-2.088,-0.261,9.503,-0.015,0.007,0.003,-46.5,4.2,-51.0,1939.0
1787130833.424269,-2.109,-0.335,9.529,-0.018,0.008,-0.006,-48.15,3.6,-51.3,1939.0
1787130833.4242806,-2.138,-0.304,9.51,-0.02,0.014,-0.007,-47.25,3.0,-49.95,1939.0
1787130833.6284635,-2.078,-0.364,9.5,-0.019,0.011,0.002,-48.0,3.45,-49.95,1984.0
1787130833.6284885,-2.073,-0.271,9.555,-0.018,0.015,-0.001,-48.15,2.85,-49.35,1888.0
1787130833.8341224,-2.133,-0.285,9.534,-0.013,0.01,-0.004,-47.1,2.85,-51.6,1930.0
1787130833.8341477,-2.239,-0.294,9.562,-0.018,0.003,-0.002,-48.75,2.25,-50.4,1930.0
1787130833.8341591,-2.071,-0.285,9.498,-0.014,0.005,0.0,-47.7,4.95,-50.7,1930.0
1787130834.0384402,-2.095,-0.28,9.498,-0.015,0.006,-0.006,-48.15,2.4,-50.85,1947.0
1787130834.0384643,-2.09,-0.321,9.519,-0.014,0.011,-0.007,-47.1,4.05,-50.1,1947.0
1787130834.0384755,-2.124,-0.285,9.498,-0.014,0.016,0.001,-47.25,4.2,-50.7,1947.0
1787130834.2464967,-2.095,-0.347,9.469,-0.018,0.017,-0.006,-48.15,3.6,-49.35,1945.0
1787130834.4491653,-2.133,-0.251,9.464,-0.013,0.014,-0.005,-47.25,3.0,-51.0,1969.0
1787130834.4491875,-2.145,-0.318,9.464,-0.014,0.005,-0.002,-48.0,4.2,-52.2,1969.0
1787130834.449194,-2.176,-0.316,9.5,-0.016,0.009,-0.001,-47.1,2.85,-51.3,1969.0
1787130834.6531355,-2.138,-0.35,9.455,-0.016,0.01,0.001,-47.25,3.75,-50.7,1907.0
1787130834.6531608,-2.148,-0.342,9.531,-0.017,0.0,-0.006,-49.05,3.75,-50.7,1907.0
1787130834.6531723,-2.212,-0.309,9.538,-0.015,0.001,-0.004,-48.3,3.0,-49.2,1907.0
1787130834.8580399,-2.107,-0.364,9.524,-0.016,0.011,-0.004,-47.7,2.25,-50.7,1974.0
1787130834.8580751,-2.2,-0.314,9.534,-0.013,0.011,0.001,-47.25,3.75,-51.0,1974.0
1787130834.8580823,-2.162,-0.294,9.476,-0.014,0.015,-0.006,-47.4,2.85,-52.35,1903.0
1787130835.0632944,-2.009,-0.311,9.512,-0.013,0.023,0.0,-47.85,3.6,-50.1,1962.0
1787130835.063321,-2.133,-0.359,9.548,-0.012,0.029,-0.003,-47.4,3.15,-51.3,1925.0
1787130835.0633328,-2.265,-0.347,9.519,-0.014,0.008,0.005,-47.7,2.7,-51.0,1925.0
1787130835.267369,-2.184,-0.29,9.531,-0.015,0.013,0.001,-48.75,2.25,-51.75,1917.0
1787130835.2673948,-2.133,-0.333,9.538,-0.016,0.007,-0.004,-47.7,2.7,-50.7,1919.0
1787130835.4726055,-2.136,-0.316,9.505,-0.021,0.009,-0.004,-48.3,3.0,-50.7,1950.0
1787130835.4726312,-2.155,-0.309,9.531,-0.02,0.011,-0.003,-49.65,3.15,-50.85,1950.0
1787130835.472643,-2.037,-0.299,9.479,-0.015,0.019,-0.004,-47.4,1.35,-49.05,1950.0
1787130835.6776125,-2.131,-0.268,9.491,-0.018,0.016,-0.002,-47.25,3.45,-50.4,1981.0
1787130835.6776376,-2.169,-0.309,9.476,-0.017,0.014,0.001,-47.1,3.15,-50.1,1981.0
1787130835.6776488,-2.167,-0.321,9.493,-0.017,0.015,-0.003,-48.9,3.15,-52.05,1981.0
1787130835.8831773,-2.162,-0.318,9.536,-0.014,0.009,-0.003,-47.25,2.7,-51.0,1949.0
1787130835.8832073,-2.265,-0.321,9.491,-0.015,0.006,0.002,-48.15,3.6,-51.3,1949.0
1787130836.0873406,-2.179,-0.29,9.476,-0.022,-0.005,-0.007,-48.0,4.5,-49.95,1943.0
1787130836.0873659,-2.174,-0.259,9.546,-0.019,0.007,-0.008,-47.85,3.15,-49.8,1943.0
1787130836.087377,-2.148,-0.393,9.503,-0.019,0.012,-0.007,-47.85,2.4,-49.35,1943.0
1787130836.2918005,-2.093,-0.311,9.479,-0.015,0.013,-0.001,-47.25,2.7,-51.75,1955.0
1787130836.2918277,-2.219,-0.311,9.57,-0.015,0.007,0.002,-47.85,4.8,-52.05,1955.0
1787130836.2918391,-2.136,-0.335,9.507,-0.015,0.011,0.006,-47.7,3.75,-51.45,1955.0
1787130836.4969218,-2.157,-0.294,9.527,-0.021,0.005,-0.005,-48.3,3.0,-50.4,1947.0
1787130836.4969475,-2.102,-0.273,9.534,-0.013,0.002,-0.004,-49.05,2.7,-50.7,1947.0
1787130836.4969587,-2.203,-0.345,9.51,-0.015,0.012,-0.007,-49.05,3.0,-50.4,1947.0
1787130836.7014663,-2.16,-0.304,9.524,-0.016,0.013,-0.002,-48.6,2.85,-51.3,1926.0
1787130836.701493,-2.203,-0.28,9.548,-0.018,0.008,0.001,-48.3,2.25,-50.7,1926.0
1787130836.7015042,-2.169,-0.316,9.507,-0.015,0.005,-0.001,-48.9,2.4,-50.85,1926.0
1787130836.9041753,-2.152,-0.369,9.498,-0.019,0.001,-0.003,-48.15,3.6,-50.55,1951.0
1787130837.1109126,-2.116,-0.328,9.515,-0.018,0.006,-0.004,-48.6,4.05,-50.1,1893.0
1787130837.1110933,-2.112,-0.292,9.522,-0.02,0.01,-0.005,-48.6,4.05,-52.05,1893.0
1787130837.1111019,-2.222,-0.28,9.476,-0.012,0.012,-0.003,-48.15,2.85,-51.3,1975.0
1787130837.3158154,-2.131,-0.318,9.527,-0.012,0.01,0.001,-47.25,3.0,-51.45,1963.0
1787130837.3158412,-2.093,-0.299,9.505,-0.015,0.01,-0.01,-47.25,3.0,-51.75,1963.0
