timestamp,ax,ay,az,gx,gy,gz,mx,my,mz,dist
1786369061.6137564,-1.24,-2.595,9.352,-0.029,0.029,-0.005,21.9,-24.75,33.75,59.0
1786369061.6137943,-1.259,-2.605,9.409,-0.028,0.041,0.0,22.5,-24.45,32.85,59.0
1786369061.613814,-1.255,-2.624,9.376,-0.028,0.039,-0.003,23.1,-23.85,33.0,66.0
1786369061.6138332,-1.537,-2.468,9.397,-0.009,0.048,-0.012,23.55,-21.75,34.65,67.0
1786369061.6138496,-1.437,-2.444,9.38,-0.012,0.019,-0.011,22.5,-23.25,33.9,67.0
1786369061.6138651,-1.331,-2.526,9.44,-0.016,0.024,-0.002,24.3,-23.25,35.1,67.0
1786369061.613881,-1.47,-2.54,9.402,-0.014,0.002,-0.001,22.65,-22.8,35.25,59.0
1786369061.6139054,-1.422,-2.495,9.361,-0.012,0.003,0.002,23.4,-21.6,35.55,59.0
1786369061.613926,-1.444,-2.461,9.606,-0.034,0.006,0.0,23.85,-22.35,36.3,59.0
1786369061.6139424,-1.494,-2.483,9.376,-0.015,0.015,0.007,23.4,-23.1,35.25,72.0
1786369061.6139581,-1.492,-2.43,9.34,-0.025,0.004,-0.001,23.55,-22.2,35.4,72.0
1786369061.6139727,-1.501,-2.557,9.481,-0.016,0.0,-0.001,23.1,-23.1,35.25,72.0
1786369061.613987,-1.329,-2.468,9.404,-0.014,0.028,0.001,24.3,-23.25,35.1,57.0
1786369061.6140015,-1.489,-2.442,9.364,-0.019,0.02,-0.001,21.9,-20.85,35.25,57.0
1786369061.6140156,-1.484,-2.454,9.366,-0.015,0.012,0.007,23.4,-22.35,34.2,57.0
1786369061.6140296,-1.508,-2.497,9.402,-0.019,0.014,-0.004,24.3,-22.5,35.4,66.0
1786369061.6140442,-1.41,-2.471,9.397,-0.012,0.021,0.001,23.85,-22.35,33.75,66.0
1786369061.6140585,-1.36,-2.437,9.469,-0.012,0.028,0.003,24.3,-21.45,34.65,66.0
1786369061.6140733,-1.439,-2.483,9.416,-0.01,0.012,-0.006,23.25,-21.45,35.85,60.0
1786369061.6140883,-1.448,-2.538,9.397,-0.013,0.018,0.001,23.85,-22.35,35.55,60.0
1786369061.6141021,-1.456,-2.5,9.354,-0.012,0.028,0.003,23.85,-21.9,35.55,60.0
1786369061.6141164,-1.437,-2.495,9.414,-0.008,0.004,0.001,24.0,-22.2,35.85,57.0
1786369061.614131,-1.465,-2.433,9.39,-0.019,0.008,0.001,24.3,-20.55,36.6,62.0
1786369061.6141458,-1.446,-2.449,9.4,-0.014,0.005,0.005,25.2,-22.35,36.3,62.0
1786369061.61416,-1.456,-2.476,9.416,-0.022,0.013,-0.004,24.45,-21.9,36.0,30.0
1786369061.614174,-1.434,-2.495,9.436,-0.018,0.014,-0.005,23.1,-21.9,37.05,69.0
1786369061.614188,-1.537,-2.413,9.421,-0.017,0.014,-0.004,23.4,-21.6,36.3,69.0
1786369061.6142013,-1.468,-2.476,9.388,-0.012,0.009,-0.003,23.1,-20.4,34.2,30.0
1786369061.6142151,-1.47,-2.495,9.378,-0.016,0.013,-0.007,23.55,-22.2,36.15,76.0
1786369061.6142297,-1.465,-2.464,9.378,-0.014,0.013,-0.002,23.85,-22.35,35.55,76.0
1786369061.6142437,-1.494,-2.399,9.397,-0.018,0.005,-0.003,23.85,-20.1,36.3,77.0
1786369061.614257,-1.446,-2.449,9.433,-0.011,0.012,-0.004,22.5,-21.75,37.2,77.0
1786369061.6142735,-1.489,-2.416,9.361,-0.018,0.009,-0.003,23.1,-21.6,35.25,77.0
1786369061.6142874,-1.559,-2.495,9.38,-0.013,0.026,0.002,24.15,-20.85,37.05,74.0
1786369061.6143017,-1.499,-2.466,9.345,-0.02,0.023,0.002,24.9,-22.8,35.55,74.0
1786369061.6143181,-1.494,-2.495,9.428,-0.018,0.015,-0.002,24.9,-21.9,36.3,71.0
1786369061.6143317,-1.48,-2.478,9.424,-0.019,0.007,-0.005,24.0,-20.55,34.65,35.0
1786369061.6143453,-1.59,-2.428,9.34,-0.017,0.004,-0.002,23.1,-20.85,36.3,35.0
1786369061.6143584,-1.506,-2.416,9.464,-0.018,0.016,-0.002,24.45,-21.6,36.3,35.0
1786369061.6143725,-1.42,-2.428,9.457,-0.017,0.011,-0.003,25.05,-21.0,35.85,67.0
1786369061.6143906,-1.403,-2.37,9.471,-0.016,0.004,0.012,25.05,-21.0,37.2,67.0
1786369061.614405,-1.575,-2.365,9.378,-0.012,0.009,0.005,25.65,-21.9,37.05,67.0
1786369061.6144187,-1.472,-2.387,9.431,-0.014,0.001,0.009,25.95,-22.35,35.55,67.0
1786369061.6144328,-1.42,-2.471,9.412,-0.015,0.005,-0.002,24.75,-20.55,37.2,67.0
1786369061.6144474,-1.528,-2.461,9.33,-0.023,0.012,0.013,24.15,-20.85,37.05,76.0
1786369061.6144614,-1.468,-2.466,9.376,-0.022,0.003,-0.004,23.55,-22.2,35.1,80.0
1786369061.6144843,-1.513,-2.478,9.416,-0.023,-0.002,-0.007,24.15,-21.6,35.25,80.0
1786369061.614499,-1.482,-2.44,9.397,-0.016,0.003,-0.005,23.55,-20.55,36.9,80.0
1786369061.6145132,-1.446,-2.435,9.397,-0.016,0.005,-0.003,23.85,-22.35,35.55,80.0
1786369061.614527,-1.434,-2.392,9.347,-0.016,0.002,0.0,25.05,-20.55,36.9,77.0
1786369061.61454,-1.559,-2.423,9.402,-0.02,0.004,-0.009,24.0,-22.2,37.65,77.0
1786369061.6145537,-1.549,-2.473,9.397,-0.016,-0.015,-0.014,25.2,-20.4,37.8,77.0
1786369061.6145675,-1.472,-2.485,9.457,-0.021,-0.025,-0.014,24.45,-23.1,36.3,77.0
1786369061.6145818,-1.46,-2.435,9.39,-0.027,-0.028,-0.015,22.5,-21.75,36.15,77.0
1786369061.6145952,-1.528,-2.409,9.433,-0.022,-0.005,-0.01,24.3,-22.2,36.6,29.0
1786369061.61461,-1.437,-2.399,9.436,-0.015,0.007,-0.014,23.4,-21.6,36.0,33.0
1786369061.6146274,-1.52,-2.433,9.39,-0.023,-0.004,-0.004,24.9,-22.8,35.55,33.0
1786369061.614641,-1.439,-2.5,9.459,-0.027,-0.008,-0.005,24.3,-21.75,34.65,33.0
1786369061.6146548,-1.434,-2.488,9.428,-0.023,0.005,-0.006,23.1,-20.85,35.55,33.0
1786369061.6146684,-1.487,-2.545,9.361,-0.021,0.014,-0.003,22.5,-21.75,35.4,33.0
1786369061.6146824,-1.501,-2.468,9.455,-0.024,0.015,-0.003,24.9,-20.85,36.3,77.0
1786369061.6146963,-1.441,-2.411,9.4,-0.021,0.012,-0.006,24.45,-21.9,36.0,77.0
1786369061.6147096,-1.477,-2.447,9.462,-0.022,0.019,-0.002,23.4,-21.9,35.55,77.0
1786369061.6147237,-1.396,-2.485,9.407,-0.014,0.018,-0.002,23.85,-23.1,35.25,31.0
1786369061.6147408,-1.532,-2.418,9.455,-0.014,0.012,-0.01,23.4,-21.15,36.75,31.0
1786369061.6147633,-1.48,-2.416,9.342,-0.018,0.006,-0.002,22.5,-22.2,35.85,31.0
1786369061.6147802,-1.508,-2.471,9.4,-0.016,0.007,-0.008,23.55,-21.75,36.15,32.0
1786369061.614794,-1.489,-2.418,9.376,-0.02,0.011,-0.004,25.2,-20.4,36.3,32.0
1786369061.614808,-1.492,-2.421,9.402,-0.014,0.014,-0.002,23.85,-21.9,36.3,32.0
1786369061.6148217,-1.523,-2.44,9.428,-0.019,0.02,-0.003,24.0,-21.45,35.1,31.0
1786369061.6148353,-1.441,-2.346,9.333,-0.027,0.022,-0.002,23.85,-21.6,36.3,31.0
1786369061.6148489,-1.422,-2.447,9.414,-0.026,0.018,-0.004,24.75,-21.0,36.9,31.0
1786369061.6148627,-1.393,-2.43,9.395,-0.014,0.02,-0.005,24.15,-18.9,35.55,39.0
1786369061.6148765,-1.48,-2.428,9.428,-0.017,0.019,-0.003,23.85,-20.4,36.0,39.0
1786369061.61489,-1.554,-2.44,9.388,-0.016,0.015,-0.001,23.4,-22.35,35.55,39.0
1786369061.6149035,-1.525,-2.44,9.414,-0.016,0.005,0.004,24.45,-21.6,36.3,68.0
1786369061.6149182,-1.508,-2.404,9.376,-0.013,0.003,0.003,25.65,-21.9,35.55,68.0
1786369061.6149318,-1.501,-2.473,9.448,-0.014,0.009,-0.001,22.65,-21.15,37.05,68.0
1786369061.6149457,-1.511,-2.418,9.361,-0.021,0.006,-0.003,23.85,-21.6,36.0,61.0
1786369061.614959,-1.511,-2.454,9.361,-0.017,0.014,0.0,24.0,-21.0,36.9,61.0
1786369061.6149719,-1.528,-2.449,9.385,-0.011,0.014,-0.003,24.75,-22.5,35.1,61.0
1786369061.6149855,-1.475,-2.444,9.428,-0.018,0.006,-0.004,24.75,-22.2,36.15,26.0
1786369061.614999,-1.487,-2.459,9.414,-0.018,0.007,-0.006,23.1,-21.15,36.75,26.0
1786369061.615013,-1.504,-2.456,9.369,-0.02,0.009,0.001,25.2,-20.85,37.05,26.0
1786369061.6150262,-1.489,-2.466,9.378,-0.015,0.011,0.003,24.9,-21.15,37.05,67.0
1786369061.61504,-1.504,-2.452,9.395,-0.025,0.005,0.005,23.1,-22.35,35.25,67.0
1786369061.6150534,-1.506,-2.404,9.392,-0.03,0.004,0.001,24.3,-21.0,36.9,67.0
1786369061.6150672,-1.607,-2.466,9.4,-0.019,0.019,-0.009,24.75,-21.0,36.15,40.0
1786369061.6150806,-1.494,-2.523,9.364,-0.022,0.007,-0.013,22.8,-22.2,33.6,68.0
1786369061.6150942,-1.429,-2.562,9.412,-0.009,0.021,-0.003,23.25,-22.2,36.15,68.0
1786369061.6151078,-1.408,-2.495,9.436,-0.006,0.037,0.0,24.75,-21.75,35.1,68.0
1786369061.615122,-1.597,-2.502,9.376,-0.01,0.033,0.001,22.65,-21.9,34.95,68.0
1786369061.6151369,-1.551,-2.454,9.383,-0.007,0.01,0.009,24.0,-21.45,34.65,68.0
1786369061.6151507,-1.554,-2.373,9.388,-0.014,-0.01,0.005,24.3,-20.55,37.2,67.0
1786369061.6151638,-1.499,-2.389,9.366,-0.014,0.003,0.011,24.3,-19.8,36.15,67.0
1786369061.6151776,-1.506,-2.361,9.467,-0.018,0.01,0.004,24.15,-20.85,36.75,81.0
1786369061.6151915,-1.508,-2.44,9.426,-0.018,0.009,0.004,24.75,-19.05,36.6,81.0
1786369061.6152077,-1.568,-2.444,9.421,-0.016,0.006,-0.002,24.9,-19.65,37.5,81.0
1786369061.615221,-1.547,-2.454,9.402,-0.02,0.008,-0.005,24.45,-21.15,37.8,61.0
1786369061.6152346,-1.671,-2.444,9.373,-0.005,0.07,0.011,24.15,-21.15,37.8,56.0
1786369061.6153038,-1.568,-2.437,9.371,-0.008,0.051,0.009,25.5,-21.0,37.65,56.0
1786369061.6153178,-1.662,-2.48,9.376,-0.017,0.043,0.01,24.15,-21.15,38.55,56.0
1786369061.615332,-1.618,-2.37,9.345,-0.019,0.007,0.001,24.0,-20.55,36.9,75.0
1786369061.6153452,-1.535,-2.461,9.412,-0.014,0.008,-0.005,24.75,-20.55,37.95,34.0
1786369061.6153593,-1.549,-2.423,9.4,-0.012,0.007,0.002,24.3,-21.0,36.9,24.0
1786369061.615373,-1.554,-2.44,9.352,-0.012,0.013,-0.006,24.3,-21.45,36.9,24.0
1786369061.6153867,-1.58,-2.38,9.376,-0.016,0.01,-0.005,24.45,-19.65,37.5,24.0
1786369061.6154006,-1.654,-2.444,9.452,-0.021,0.004,-0.007,25.05,-21.0,37.95,67.0
1786369061.6154146,-1.585,-2.461,9.416,-0.021,-0.001,-0.003,24.45,-19.65,37.5,67.0
1786369061.615429,-1.539,-2.447,9.383,-0.023,0.008,-0.002,25.8,-20.55,37.2,67.0
1786369061.6154425,-1.456,-2.397,9.373,-0.013,0.016,-0.001,24.3,-21.0,37.95,74.0
1786369061.6154566,-1.539,-2.452,9.419,-0.018,0.019,0.001,25.2,-21.15,37.8,74.0
1786369061.61547,-1.614,-2.44,9.421,-0.011,0.02,0.003,24.15,-20.1,37.5,74.0
1786369061.6154952,-1.587,-2.449,9.347,-0.012,0.024,0.012,25.05,-21.0,37.2,52.0
1786369061.6155093,-1.64,-2.456,9.354,-0.008,0.014,0.002,24.75,-20.25,37.95,52.0
1786369061.6155233,-1.535,-2.404,9.395,-0.012,0.004,0.006,24.9,-20.4,37.05,21.0
1786369061.6155374,-1.595,-2.389,9.371,-0.013,0.007,0.001,24.15,-18.9,38.55,21.0
1786369061.6155512,-1.58,-2.449,9.395,-0.013,0.01,0.008,24.45,-20.4,37.05,21.0
1786369061.6155648,-1.575,-2.406,9.412,-0.01,0.004,0.004,26.55,-21.45,36.15,71.0
1786369061.6155784,-1.508,-2.394,9.359,-0.01,0.007,0.005,24.75,-21.0,36.9,71.0
1786369061.6155918,-1.633,-2.38,9.361,-0.012,0.009,0.004,25.65,-20.85,37.05,71.0
1786369061.6156056,-1.597,-2.423,9.416,-0.022,0.011,-0.012,24.0,-21.0,36.9,74.0
1786369061.6156194,-1.628,-2.354,9.313,-0.024,0.007,-0.007,24.9,-21.15,37.8,70.0
1786369061.6156325,-1.58,-2.454,9.416,-0.011,0.016,-0.004,25.5,-21.0,37.65,70.0
1786369061.6156461,-1.671,-2.375,9.352,-0.009,0.006,-0.003,25.65,-19.65,38.55,73.0
1786369061.6156602,-1.633,-2.399,9.395,-0.013,-0.007,-0.012,24.45,-20.1,39.0,70.0
1786369061.615674,-1.484,-2.418,9.352,-0.02,-0.013,-0.011,25.65,-20.4,76.2,70.0
1786369061.6156878,-1.597,-2.399,9.337,-0.014,-0.003,-0.007,24.15,-20.4,37.05,78.0
1786369061.6157024,-1.506,-2.392,9.378,-0.016,-0.004,-0.008,26.55,-19.5,37.2,24.0
1786369061.6157212,-1.592,-2.385,9.404,-0.013,-0.001,-0.003,25.8,-20.25,37.65,24.0
1786369061.6157424,-1.662,-2.437,9.402,-0.017,0.006,-0.001,24.0,-21.45,36.9,25.0
1786369061.6157565,-1.52,-2.418,9.366,-0.026,-0.01,-0.002,25.65,-20.85,38.25,25.0
1786369061.6157715,-1.508,-2.523,9.342,-0.02,0.009,-0.006,24.15,-21.6,37.8,35.0
1786369061.6157851,-1.559,-2.387,9.345,-0.014,0.013,0.001,24.3,-19.8,35.85,68.0
1786369061.6157992,-1.554,-2.461,9.376,-0.015,0.025,0.005,25.05,-20.25,37.65,68.0
1786369061.6158135,-1.585,-2.444,9.347,-0.006,0.034,0.012,25.65,-21.15,35.55,68.0
1786369061.6158268,-1.599,-2.459,9.443,-0.013,0.022,-0.007,23.85,-20.4,37.5,79.0
1786369061.6158404,-1.604,-2.409,9.392,-0.021,0.001,-0.016,25.5,-20.25,37.65,79.0
1786369061.6158543,-1.623,-2.409,9.388,-0.014,0.028,-0.011,25.5,-20.25,36.9,79.0
1786369061.6158698,-1.544,-2.397,9.352,-0.012,0.001,0.004,23.85,-21.15,39.0,67.0
1786369061.6158836,-1.544,-2.423,9.412,-0.003,0.016,0.044,22.8,-19.8,38.4,67.0
1786369061.6158972,-1.623,-2.401,9.376,-0.016,0.026,0.02,24.3,-20.55,38.4,67.0
1786369061.6159108,-1.609,-2.337,9.335,-0.027,-0.002,0.01,24.75,-20.25,37.65,70.0
1786369061.615925,-1.492,-2.356,9.474,-0.025,0.015,0.01,26.55,-20.55,37.2,70.0
1786369061.6159382,-1.477,-2.265,9.428,-0.024,0.013,0.009,25.8,-20.55,37.2,70.0
1786369061.615952,-1.724,-2.33,9.349,-0.024,0.032,-0.002,24.75,-19.8,37.95,26.0
1786369061.6159656,-1.618,-2.428,9.349,-0.02,0.023,-0.002,26.55,-19.8,37.2,26.0
1786369061.6159792,-1.547,-2.452,9.352,-0.019,0.019,0.002,26.4,-18.9,39.0,26.0
1786369061.6159923,-1.568,-2.377,9.404,-0.017,0.012,-0.006,25.95,-19.65,38.55,84.0
1786369061.6160057,-1.592,-2.409,9.352,-0.016,0.018,-0.004,25.2,-19.2,37.5,84.0
1786369061.616019,-1.669,-2.327,9.428,-0.018,0.014,-0.007,26.7,-19.2,37.5,84.0
1786369061.6160324,-1.561,-2.399,9.392,-0.016,0.005,0.003,25.65,-21.15,38.25,29.0
1786369061.6160457,-1.518,-2.385,9.383,-0.012,0.013,0.004,24.9,-19.65,37.8,29.0
1786369061.6160588,-1.621,-2.354,9.376,-0.016,0.017,0.003,25.05,-20.55,37.65,29.0
1786369061.6160722,-1.678,-2.327,9.395,-0.018,0.015,-0.005,26.4,-18.9,40.05,27.0
1786369061.6160855,-1.642,-2.339,9.364,-0.016,0.012,0.0,24.9,-20.4,37.5,27.0
1786369061.616099,-1.664,-2.358,9.431,-0.022,0.01,-0.005,25.65,-20.4,37.05,27.0
1786369061.616113,-1.638,-2.375,9.395,-0.01,0.009,0.0,25.05,-19.5,38.4,76.0
1786369061.6161265,-1.635,-2.382,9.39,-0.023,0.007,-0.009,25.65,-20.1,36.75,76.0
1786369061.6161401,-1.678,-2.394,9.428,-0.015,0.001,-0.003,25.05,-19.8,36.15,39.0
1786369061.6161542,-1.611,-2.385,9.357,-0.023,0.011,0.003,25.65,-20.1,37.8,69.0
1786369061.6161673,-1.674,-2.38,9.321,-0.014,0.008,-0.002,25.5,-21.45,37.2,69.0
1786369061.6161811,-1.587,-2.421,9.388,-0.023,0.003,0.001,25.05,-19.8,37.95,30.0
1786369061.6161957,-1.618,-2.399,9.371,-0.019,0.005,-0.003,23.85,-20.1,39.0,30.0
1786369061.6162095,-1.666,-2.397,9.407,-0.022,0.005,-0.003,24.75,-20.25,36.9,30.0
1786369061.616224,-1.609,-2.377,9.361,-0.018,0.011,-0.005,25.95,-20.1,37.05,28.0
1786369061.6162379,-1.717,-2.354,9.371,-0.022,0.003,-0.001,26.4,-22.35,37.05,28.0
1786369061.6162517,-1.571,-2.361,9.412,-0.021,0.004,0.0,25.05,-19.05,37.65,28.0
1786369061.6162653,-1.571,-2.406,9.366,-0.014,0.019,-0.003,25.65,-20.4,37.5,76.0
1786369061.6162791,-1.659,-2.401,9.369,-0.014,0.019,0.003,25.95,-18.9,37.8,76.0
1786369061.6162927,-1.712,-2.382,9.352,-0.011,0.01,0.003,26.25,-18.75,37.95,76.0
1786369061.616306,-1.578,-2.394,9.412,-0.014,0.014,0.001,24.9,-21.15,37.8,29.0
1786369061.6163197,-1.652,-2.397,9.335,-0.019,0.02,0.004,25.65,-19.65,36.75,29.0
1786369061.6163335,-1.659,-2.385,9.376,-0.018,0.018,0.001,24.3,-20.25,37.95,29.0
1786369061.6163473,-1.635,-2.346,9.392,-0.017,0.009,0.001,26.4,-20.85,38.25,31.0
1786369061.616361,-1.657,-2.32,9.376,-0.017,0.009,-0.001,25.8,-19.05,37.65,31.0
1786369061.616374,-1.592,-2.358,9.366,-0.015,0.006,-0.003,25.2,-20.1,37.05,31.0
1786369061.6163886,-1.662,-2.452,9.345,-0.015,0.014,0.003,24.0,-20.25,38.4,29.0
1786369061.6164021,-1.666,-2.418,9.352,-0.013,0.008,-0.001,25.95,-20.1,38.55,29.0
1786369061.6164153,-1.69,-2.421,9.182,-0.023,0.018,0.002,25.65,-19.2,38.55,29.0
1786369061.6164289,-1.686,-2.356,9.464,-0.019,0.003,-0.003,25.8,-19.8,37.2,78.0
1786369061.6164422,-1.556,-2.473,9.361,-0.013,0.02,-0.008,24.3,-20.55,37.65,58.0
1786369061.6164563,-1.812,-2.428,9.357,-0.023,0.02,-0.01,25.5,-18.75,37.95,58.0
1786369061.6164699,-1.53,-2.437,9.412,-0.012,0.022,-0.001,25.5,-20.55,38.4,30.0
1786369061.616499,-1.58,-2.44,9.409,-0.007,0.045,-0.011,25.2,-19.65,37.05,76.0
1786369061.6165125,-1.642,-2.437,9.376,-0.021,0.039,-0.001,25.5,-20.25,38.7,76.0
1786369061.6165264,-1.645,-2.334,9.383,-0.015,0.007,-0.001,26.4,-19.2,36.3,63.0
1786369061.6165395,-1.686,-2.255,9.347,-0.015,0.005,-0.004,26.25,-21.0,37.2,63.0
1786369061.616553,-1.621,-2.255,9.392,-0.019,0.012,0.002,26.25,-19.05,39.45,63.0
1786369061.6165664,-1.743,-2.399,9.448,-0.015,-0.008,-0.013,24.15,-19.65,38.55,92.0
1786369061.6165802,-1.69,-2.717,9.361,-0.009,0.002,0.006,23.55,-20.55,37.65,92.0
1786369061.616594,-1.858,-2.387,9.318,-0.016,-0.017,-0.007,25.2,-20.85,37.05,75.0
1786369061.616608,-1.616,-2.473,9.395,-0.015,-0.017,-0.002,24.3,-20.55,38.4,29.0
1786369061.6166217,-1.729,-2.37,9.38,-0.016,-0.016,0.003,24.9,-18.15,37.5,29.0
1786369061.6166453,-1.633,-2.454,9.397,-0.019,-0.019,0.002,25.2,-20.4,37.5,40.0
1786369061.6641304,-1.645,-2.332,9.421,-0.001,-0.047,0.006,23.55,-20.55,36.9,75.0
1786369061.6641858,-1.638,-2.368,9.431,0.02,-0.052,-0.007,23.1,-21.6,36.75,75.0
1786369061.6642091,-1.185,-2.552,9.335,-0.002,-0.048,-0.01,23.4,-21.6,37.05,74.0
1786369061.86915,-1.489,-2.31,9.376,-0.014,-0.064,0.005,21.6,-23.55,35.55,35.0
1786369061.8691955,-1.434,-2.418,9.452,-0.003,-0.066,-0.019,22.65,-23.85,36.0,35.0
1786369061.8693464,-1.47,-2.416,9.366,0.001,-0.052,-0.013,22.35,-23.85,35.55,31.0
1786369062.0735211,-1.448,-2.425,9.38,-0.023,-0.026,-0.01,21.6,-23.1,34.2,72.0
1786369062.0735774,-1.307,-2.423,9.464,-0.017,-0.01,-0.021,21.3,-23.25,34.35,72.0
1786369062.0736012,-1.295,-2.48,9.452,-0.007,0.011,-0.016,23.4,-23.1,34.5,72.0
1786369062.2789018,-1.413,-2.346,9.4,-0.019,0.014,-0.009,24.0,-23.25,33.6,73.0
1786369062.2789688,-1.252,-2.452,9.419,-0.011,0.036,-0.001,22.35,-23.55,35.25,73.0
1786369062.2789984,-1.341,-2.375,9.476,-0.012,0.051,-0.01,22.35,-23.85,34.5,73.0
1786369062.4832225,-1.369,-2.346,9.448,-0.016,0.019,0.001,23.1,-23.55,34.5,73.0
1786369062.4832728,-1.393,-2.325,9.392,-0.013,0.025,0.007,23.1,-22.8,34.5,73.0
1786369062.4832942,-1.448,-2.406,9.469,-0.012,0.016,0.009,23.25,-22.2,35.4,73.0
1786369062.6880825,-1.283,-2.449,9.431,-0.013,0.022,0.011,24.3,-22.5,35.1,71.0
1786369062.68816,-1.456,-2.406,9.385,-0.015,0.036,0.001,23.4,-21.6,35.25,71.0
1786369062.6881955,-1.489,-2.389,9.431,-0.013,0.032,0.006,23.4,-22.8,35.55,71.0
1786369062.892766,-1.489,-2.411,9.397,-0.027,0.027,-0.002,23.25,-22.2,35.85,71.0
1786369062.8928454,-1.393,-2.459,9.402,-0.024,0.027,-0.012,23.85,-21.9,36.0,71.0
1786369062.89288,-1.393,-2.389,9.345,-0.029,0.023,-0.01,23.85,-22.35,36.0,71.0
1786369063.0976112,-1.36,-2.212,9.438,-0.007,0.022,0.015,25.8,-20.55,35.85,28.0
1786369063.0976772,-1.532,-2.33,9.4,-0.001,0.031,0.024,22.8,-21.45,36.9,30.0
1786369063.097704,-1.472,-2.337,9.421,0.003,0.026,0.03,24.0,-21.75,37.2,30.0
1786369063.3022997,-1.597,-2.456,9.383,-0.011,0.026,0.011,23.4,-21.6,37.5,30.0
1786369063.302351,-1.504,-2.433,9.426,-0.015,0.026,0.001,22.8,-20.55,37.95,33.0
1786369063.3023736,-1.453,-2.459,9.416,-0.015,0.022,-0.006,22.05,-22.5,36.15,33.0
1786369063.5072997,-1.535,-2.44,9.407,-0.015,0.022,0.001,22.5,-21.75,36.9,37.0
1786369063.507373,-1.504,-2.373,9.431,-0.006,0.026,0.004,24.3,-22.95,36.6,21.0
1786369063.5074053,-1.542,-2.318,9.376,-0.017,0.016,-0.004,24.0,-23.7,36.6,21.0
1786369063.7119987,-1.506,-2.418,9.38,-0.022,0.005,-0.007,23.1,-20.4,36.75,25.0
1786369063.7120862,-1.743,-2.286,9.304,-0.016,-0.005,-0.018,24.75,-21.75,37.65,32.0
1786369063.712126,-1.48,-2.406,9.469,-0.023,-0.028,-0.015,23.85,-22.8,37.05,32.0
1786369063.9175472,-1.468,-2.404,9.469,-0.018,0.018,-0.009,23.1,-22.35,37.5,66.0
1786369063.9176064,-1.499,-2.43,9.388,-0.014,0.018,-0.003,22.5,-23.25,36.15,66.0
1786369063.9176276,-1.52,-2.409,9.414,-0.015,0.02,-0.002,21.9,-21.9,35.55,66.0
1786369064.1216674,-1.525,-2.392,9.366,-0.013,0.012,0.011,24.3,-22.5,35.85,73.0
1786369064.1217418,-1.53,-2.397,9.448,-0.003,0.0,0.001,24.15,-22.35,35.55,73.0
1786369064.1217759,-1.537,-2.387,9.4,-0.012,-0.004,0.005,24.3,-22.2,36.15,73.0
1786369064.3266122,-1.427,-2.37,9.462,-0.017,0.011,-0.002,23.25,-22.2,37.2,75.0
1786369064.326705,-1.508,-2.346,9.388,-0.018,0.014,0.001,25.05,-22.2,35.85,75.0
1786369064.3267405,-1.513,-2.377,9.438,-0.015,0.018,0.003,24.45,-20.85,35.55,75.0
1786369064.5312521,-1.482,-2.351,9.45,-0.01,0.018,0.003,24.15,-23.1,36.75,27.0
1786369064.5313127,-1.484,-2.318,9.395,-0.007,0.021,0.007,24.45,-20.85,36.75,27.0
1786369064.5313385,-1.456,-2.322,9.416,-0.015,0.028,0.009,24.0,-22.2,36.15,27.0
1786369064.7360728,-1.559,-2.361,9.395,-0.015,0.018,0.007,24.0,-21.0,36.6,25.0
1786369064.736125,-1.482,-2.382,9.467,-0.017,0.02,-0.002,24.75,-22.95,38.4,25.0
1786369064.736146,-1.472,-2.373,9.383,-0.012,0.021,0.005,22.8,-21.75,36.9,25.0
1786369064.9416845,-1.415,-2.313,9.333,-0.017,0.01,-0.006,24.15,-22.35,36.75,67.0
1786369064.9417624,-1.463,-2.406,9.426,-0.018,0.007,-0.004,23.1,-22.35,37.8,67.0
1786369064.9417932,-1.539,-2.327,9.364,-0.02,0.014,-0.002,23.25,-21.45,36.15,67.0
1786369065.1457145,-1.475,-2.404,9.397,-0.013,0.01,-0.009,24.3,-20.55,35.4,75.0
1786369065.1457825,-1.551,-2.361,9.455,-0.02,0.004,-0.004,24.75,-22.5,36.9,75.0
1786369065.3522043,-1.496,-2.397,9.428,-0.02,0.001,-0.005,24.0,-20.55,36.15,81.0
1786369065.3522544,-1.429,-2.33,9.414,-0.019,0.011,0.002,24.0,-22.2,37.95,81.0
1786369065.5557923,-1.477,-2.411,9.467,-0.021,-0.002,-0.007,24.15,-22.35,36.3,75.0
1786369065.5558395,-1.516,-2.358,9.431,-0.016,-0.002,-0.006,23.4,-21.9,36.0,75.0
1786369065.5558589,-1.532,-2.344,9.448,-0.017,-0.028,-0.013,24.0,-21.45,36.15,38.0
1786369065.7601612,-1.274,-2.334,9.4,-0.03,-0.022,-0.005,23.4,-23.85,35.25,70.0
1786369065.7602398,-1.35,-2.411,9.45,-0.025,-0.016,0.003,22.35,-23.55,36.0,70.0
1786369065.7602732,-1.369,-2.425,9.395,-0.031,-0.014,-0.012,24.15,-22.8,34.5,79.0
1786369065.9647083,-1.35,-2.423,9.416,-0.013,0.012,-0.001,22.05,-23.7,35.1,27.0
1786369065.9647706,-1.396,-2.394,9.412,-0.009,0.012,-0.006,23.1,-21.9,34.95,27.0
1786369065.9647968,-1.338,-2.365,9.4,-0.014,0.003,-0.007,21.9,-24.3,35.55,50.0
1786369066.1699657,-1.374,-2.473,9.428,-0.016,0.012,-0.003,23.4,-24.75,36.3,69.0
1786369066.170013,-1.348,-2.401,9.397,-0.01,0.014,0.001,22.5,-23.7,35.4,69.0
1786369066.1700335,-1.365,-2.389,9.378,-0.015,0.025,-0.001,21.6,-22.8,35.55,69.0
1786369066.377747,-1.346,-2.387,9.428,-0.012,0.015,0.005,23.25,-22.95,34.65,83.0
1786369066.377827,-1.358,-2.346,9.407,-0.013,0.014,-0.001,21.3,-21.45,37.2,83.0
1786369066.580448,-1.353,-2.37,9.424,-0.015,0.019,0.014,23.55,-22.95,36.6,27.0
1786369066.5805466,-1.369,-2.411,9.392,-0.014,0.011,-0.002,21.9,-22.8,34.95,27.0
1786369066.5805728,-1.401,-2.394,9.414,-0.021,0.006,-0.004,22.8,-22.2,35.1,27.0
1786369066.784266,-1.312,-2.495,9.486,-0.024,0.016,-0.014,21.9,-24.75,36.0,64.0
1786369066.7843127,-1.346,-2.461,9.424,-0.023,0.02,-0.009,22.5,-25.2,34.35,64.0
1786369066.7843332,-1.432,-2.464,9.404,-0.014,0.02,-0.003,22.35,-24.3,35.55,64.0
1786369066.9894636,-1.453,-2.425,9.421,-0.029,-0.002,-0.007,22.8,-23.7,35.1,76.0
1786369066.9895654,-1.341,-2.37,9.428,-0.03,-0.024,-0.006,24.45,-24.3,36.3,76.0
1786369066.989589,-1.355,-2.442,9.373,-0.027,-0.02,-0.003,23.25,-22.5,35.85,76.0
1786369067.1936731,-1.267,-2.373,9.479,-0.022,0.007,0.007,22.05,-24.45,33.9,64.0
1786369067.1937613,-1.501,-2.421,9.414,-0.032,0.009,0.001,22.35,-23.1,34.2,58.0
1786369067.1938024,-1.42,-2.543,9.378,-0.026,-0.024,-0.004,23.1,-24.75,33.75,58.0
1786369067.398986,-0.965,-2.437,9.428,-0.023,0.019,0.006,22.65,-25.05,33.75,61.0
1786369067.3990307,-1.068,-2.569,9.452,-0.021,0.042,0.003,22.05,-24.15,33.3,61.0
1786369067.3990514,-1.484,-2.346,9.438,-0.029,-0.003,0.001,21.9,-23.1,34.2,61.0
1786369067.6030946,-1.049,-2.775,9.428,-0.02,-0.009,-0.009,20.85,-25.05,33.45,58.0
1786369067.6031458,-1.14,-2.636,9.426,0.004,0.028,-0.007,22.05,-25.2,33.3,26.0
1786369067.603167,-1.279,-2.562,9.412,0.006,0.046,-0.029,22.05,-25.2,33.3,26.0
1786369067.808583,-1.42,-2.435,9.424,-0.021,0.051,0.007,23.1,-22.8,34.2,60.0
1786369067.8086429,-1.482,-2.468,9.455,-0.032,0.012,-0.005,21.9,-24.75,34.2,71.0
1786369067.8086708,-1.295,-2.538,9.438,-0.038,0.004,-0.003,22.5,-24.9,33.9,71.0
1786369068.0178297,-1.389,-2.37,9.414,-0.005,0.039,-0.022,21.6,-23.85,34.5,73.0
1786369068.0178852,-1.343,-2.375,9.407,-0.013,0.024,-0.017,22.35,-22.8,35.55,73.0
1786369068.2181082,-1.293,-2.365,9.438,-0.001,0.021,0.005,24.45,-23.55,35.25,60.0
1786369068.2181559,-1.422,-2.411,9.433,-0.001,0.005,0.006,23.4,-23.1,35.55,60.0
1786369068.2181766,-1.3,-2.32,9.421,-0.006,-0.018,0.008,23.55,-22.95,35.4,25.0
1786369068.422912,-1.223,-2.488,9.438,-0.024,-0.007,0.009,21.75,-23.7,34.65,31.0
1786369068.4229727,-1.247,-2.449,9.421,-0.02,0.006,-0.002,23.25,-24.15,35.85,31.0
1786369068.4229977,-1.279,-2.504,9.443,-0.015,0.008,0.009,21.75,-23.25,33.9,69.0
1786369068.62727,-1.197,-2.545,9.38,-0.022,0.011,0.024,23.1,-22.8,34.5,78.0
1786369068.6273441,-1.307,-2.686,9.471,-0.009,0.022,0.013,22.8,-25.65,35.1,78.0
1786369068.6273727,-1.444,-2.55,9.38,-0.014,0.012,0.004,22.35,-23.55,34.2,59.0
1786369068.8346317,-1.24,-2.346,9.443,-0.046,-0.045,0.006,20.85,-23.85,33.45,68.0
1786369068.834688,-1.192,-2.533,9.433,-0.036,0.012,0.002,21.75,-22.5,33.3,68.0
1786369069.0376363,-1.336,-2.313,9.414,-0.015,0.023,-0.009,23.1,-21.6,34.95,36.0
1786369069.0376916,-1.465,-2.217,9.45,-0.014,0.004,-0.006,22.8,-22.95,33.3,36.0
1786369069.0378597,-1.307,-2.243,9.469,-0.023,-0.006,0.007,21.9,-23.1,34.5,36.0
1786369069.2460678,-1.281,-2.713,9.352,-0.007,0.072,-0.035,22.65,-22.8,34.95,78.0
1786369069.2461443,-1.451,-2.617,9.354,0.014,0.069,-0.031,24.45,-22.35,34.2,78.0
1786369069.2461755,-1.53,-2.38,9.493,0.02,0.05,-0.016,24.75,-23.25,35.1,78.0
1786369069.4464633,-1.276,-2.557,9.436,-0.048,0.029,-0.014,22.65,-23.85,34.5,64.0
1786369069.4465692,-1.331,-2.502,9.402,-0.045,0.013,-0.011,23.1,-23.85,34.2,64.0
1786369069.4465997,-1.516,-2.808,9.378,-0.04,0.017,-0.002,20.85,-23.1,33.45,64.0
1786369069.6511395,-1.264,-2.301,9.455,-0.024,0.008,-0.006,22.35,-21.9,34.95,47.0
1786369069.651181,-1.298,-2.354,9.464,-0.023,0.022,0.007,22.65,-23.1,35.55,47.0
1786369069.6511984,-1.482,-2.332,9.436,-0.027,-0.008,0.012,24.45,-23.55,34.95,47.0
1786369069.8566184,-1.513,-2.303,9.404,0.005,0.045,-0.024,23.85,-22.8,33.0,74.0
1786369069.856691,-1.369,-2.277,9.495,0.001,0.021,0.003,24.15,-22.35,33.0,74.0
1786369069.8567219,-1.365,-2.059,9.359,-0.016,0.004,0.01,24.0,-22.95,35.1,74.0
1786369070.0607345,-1.441,-2.643,9.321,-0.025,-0.003,-0.006,23.4,-23.1,34.5,38.0
1786369070.0607734,-1.367,-2.689,9.4,-0.028,0.006,0.002,22.8,-23.7,35.4,71.0
1786369070.06079,-1.496,-2.586,9.402,-0.029,0.001,0.001,21.0,-24.45,33.9,71.0
1786369070.266561,-1.444,-2.397,9.467,-0.014,0.001,0.014,23.85,-24.3,35.25,56.0
1786369070.2666082,-1.295,-2.461,9.323,-0.017,0.004,0.018,22.5,-23.7,33.6,26.0
1786369070.2666285,-1.374,-2.55,9.376,-0.016,0.015,0.013,21.75,-22.95,36.15,26.0
1786369070.471292,-1.377,-2.263,9.431,-0.02,-0.003,0.017,24.9,-21.9,35.25,63.0
1786369070.4713535,-1.295,-2.303,9.459,-0.026,-0.007,0.012,24.15,-23.55,34.5,63.0
1786369070.4713783,-1.252,-2.322,9.428,-0.024,-0.004,0.016,23.25,-21.75,33.9,63.0
1786369070.6750524,-1.197,-2.55,9.426,-0.02,0.03,-0.006,22.05,-24.15,34.65,55.0
1786369070.6750922,-1.288,-2.466,9.445,-0.02,0.047,-0.016,24.0,-22.2,35.4,55.0
1786369070.675109,-1.365,-2.358,9.383,-0.02,0.037,-0.013,21.75,-23.7,33.9,55.0
1786369070.8801565,-1.314,-2.674,9.44,0.007,0.057,-0.026,23.25,-23.7,34.65,63.0
1786369070.880213,-1.441,-2.61,9.39,0.012,0.049,-0.012,24.0,-24.15,35.1,63.0
1786369070.8802364,-1.616,-2.368,9.335,0.024,-0.011,-0.009,24.45,-22.8,35.55,63.0
1786369071.0859668,-1.3,-2.643,9.397,-0.047,-0.036,-0.003,21.3,-24.15,34.35,25.0
1786369071.0860176,-1.171,-2.749,9.376,-0.044,-0.005,0.01,21.0,-23.25,33.3,25.0
1786369071.0860393,-1.326,-2.818,9.333,-0.029,0.011,-0.002,21.0,-24.45,34.65,25.0
1786369071.29084,-1.441,-2.617,9.404,-0.029,-0.023,0.02,22.05,-22.95,34.65,55.0
1786369071.2909086,-1.283,-2.502,9.304,-0.029,-0.017,0.023,21.75,-22.5,33.6,55.0
1786369071.2909386,-1.192,-2.674,9.469,-0.022,0.007,0.014,21.9,-23.55,34.2,55.0
1786369071.4953487,-1.197,-2.332,9.404,-0.026,-0.027,0.01,23.85,-23.55,35.25,29.0
1786369071.4954226,-1.463,-2.444,9.443,-0.023,-0.036,0.001,24.0,-22.95,33.6,29.0
1786369071.4954548,-1.192,-2.617,9.4,-0.031,-0.032,-0.022,22.05,-23.7,33.9,29.0
1786369071.6991575,-1.403,-2.401,9.407,-0.013,0.001,-0.018,22.05,-23.25,35.1,72.0
1786369071.6992302,-1.437,-2.33,9.402,-0.016,-0.014,-0.013,21.15,-23.85,33.75,72.0
1786369071.6992612,-1.398,-2.413,9.404,-0.006,-0.034,-0.01,24.75,-24.45,34.35,72.0
1786369071.9045262,-1.389,-2.308,9.474,0.02,0.009,-0.038,22.05,-24.15,34.35,66.0
1786369071.9045858,-1.36,-2.126,9.416,0.011,-0.027,-0.019,20.55,-24.15,33.9,66.0
1786369071.9046087,-1.192,-2.083,9.483,-0.009,-0.042,0.01,21.9,-23.1,32.25,66.0
1786369072.1087987,-1.185,-2.43,9.44,-0.01,0.054,-0.006,21.6,-24.75,33.75,72.0
1786369072.1088748,-1.326,-2.337,9.426,-0.02,0.036,-0.002,20.4,-25.5,34.5,72.0
1786369072.108909,-1.381,-2.272,9.44,-0.021,0.009,0.002,21.15,-25.5,33.75,67.0
1786369072.3095784,-1.089,-2.614,9.388,-0.032,0.05,-0.02,21.15,-24.3,33.45,64.0
1786369072.3144083,-1.231,-2.526,9.416,-0.013,0.059,-0.03,22.8,-23.25,32.55,64.0
1786369072.3144486,-1.267,-2.43,9.407,-0.002,0.045,-0.026,21.0,-24.15,33.6,61.0
1786369072.5176592,-1.209,-2.602,9.538,-0.028,0.007,0.01,21.75,-24.9,32.1,60.0
1786369072.5177124,-1.319,-2.54,9.39,-0.032,0.007,0.001,20.85,-22.8,30.9,60.0
1786369072.5177402,-1.29,-2.701,9.459,-0.03,-0.001,-0.001,20.4,-23.85,34.2,64.0
1786369072.7242155,-1.195,-2.514,9.457,0.002,-0.016,0.005,21.15,-25.8,33.45,20.0
1786369072.7242782,-1.29,-2.648,9.414,-0.002,-0.033,0.008,21.0,-24.45,33.3,20.0
1786369072.7243025,-1.077,-2.658,9.433,-0.007,-0.034,-0.002,20.85,-27.0,33.75,38.0
1786369072.928005,-1.307,-2.071,9.546,-0.024,-0.098,-0.012,22.35,-23.85,33.0,65.0
1786369072.9280589,-0.946,-2.138,9.349,-0.034,-0.059,0.015,22.35,-23.85,33.45,65.0
1786369072.9280822,-0.8,-2.133,9.515,-0.033,0.005,0.027,21.75,-25.2,32.85,65.0
1786369073.133005,-1.006,-2.562,9.424,-0.028,0.027,-0.004,20.25,-26.4,32.55,36.0
1786369073.1330543,-0.931,-2.433,9.433,-0.025,0.06,-0.015,20.1,-26.55,32.7,36.0
1786369073.133075,-1.089,-2.315,9.433,-0.019,0.08,-0.01,19.8,-25.2,32.55,36.0
1786369073.337985,-1.228,-2.72,9.419,0.007,0.076,-0.032,21.9,-24.3,33.0,70.0
1786369073.3380344,-1.386,-2.377,9.469,0.014,0.051,-0.027,22.35,-25.05,32.7,70.0
1786369073.3380556,-1.367,-2.203,9.321,0.018,-0.024,0.006,21.9,-24.3,33.0,70.0
1786369073.542665,-1.176,-2.43,9.414,-0.044,-0.01,0.007,22.35,-25.05,33.75,62.0
1786369073.5427208,-1.18,-2.636,9.412,-0.042,-0.004,0.002,21.0,-25.65,33.3,62.0
1786369073.5427432,-1.209,-2.713,9.404,-0.04,-0.006,0.005,21.0,-25.2,31.35,62.0
1786369073.747184,-1.154,-2.715,9.448,-0.016,0.026,0.011,22.05,-25.2,32.1,72.0
1786369073.7472458,-1.106,-2.641,9.448,-0.014,0.043,-0.006,21.15,-25.5,32.7,72.0
1786369073.7472708,-1.142,-2.528,9.416,-0.014,0.054,-0.018,20.1,-25.5,33.45,72.0
1786369073.9520278,-1.159,-2.492,9.438,-0.027,-0.028,0.019,22.05,-25.2,32.85,64.0
1786369073.952075,-1.082,-2.667,9.438,-0.037,0.01,0.018,20.85,-25.5,32.25,64.0
1786369073.9520957,-1.137,-2.775,9.414,-0.037,0.021,-0.011,20.1,-25.05,32.7,64.0
1786369074.1579142,-1.279,-2.279,9.445,-0.01,0.002,-0.001,20.85,-24.75,34.2,71.0
1786369074.1579847,-1.226,-2.274,9.438,-0.021,-0.005,0.013,21.3,-23.7,34.35,62.0
1786369074.158013,-1.238,-2.6,9.438,-0.012,-0.001,0.013,22.05,-24.9,32.85,62.0
1786369074.3617563,-1.446,-1.946,9.44,-0.027,-0.015,0.016,24.0,-22.5,35.1,64.0
1786369074.3618565,-1.255,-2.131,9.448,-0.034,-0.037,0.03,23.25,-24.15,34.35,62.0
1786369074.3618858,-1.219,-2.385,9.488,-0.024,-0.031,0.025,23.1,-25.05,33.75,62.0
1786369074.5662262,-1.142,-2.768,9.443,-0.013,0.018,-0.008,21.0,-25.65,33.3,63.0
1786369074.5662694,-1.209,-2.612,9.357,-0.005,0.042,0.003,21.15,-24.75,32.25,60.0
1786369074.5662882,-1.31,-2.48,9.469,0.011,0.044,0.007,21.6,-24.3,33.75,60.0
1786369074.7717726,-1.101,-2.614,9.385,-0.029,0.002,0.03,19.35,-24.3,33.0,59.0
1786369074.771822,-1.123,-2.634,9.385,-0.035,0.015,0.023,21.0,-25.65,33.6,62.0
1786369074.7718427,-1.293,-2.725,9.392,-0.031,0.028,0.014,21.9,-24.3,33.45,62.0
1786369074.9761844,-1.154,-2.516,9.493,-0.006,0.079,-0.051,22.5,-22.2,33.3,70.0
1786369074.9762647,-1.31,-2.519,9.251,-0.037,0.097,-0.023,22.5,-21.75,33.6,70.0
1786369074.9763076,-1.152,-2.236,9.261,0.013,0.095,-0.023,22.8,-23.25,34.35,70.0
1786369075.1811998,-1.362,-2.54,9.416,-0.01,0.01,0.019,24.0,-24.45,35.1,73.0
1786369075.1812499,-1.537,-2.514,9.395,-0.01,-0.013,0.015,23.25,-21.75,34.35,73.0
1786369075.1812701,-1.453,-2.471,9.479,-0.015,-0.045,0.011,24.0,-23.25,35.4,62.0
1786369075.3858314,-1.247,-2.895,9.361,-0.058,0.03,-0.018,20.4,-23.55,34.5,65.0
1786369075.385886,-1.35,-2.847,9.61,-0.035,0.039,-0.039,21.6,-23.85,34.5,65.0
1786369075.3859105,-1.487,-3.168,9.278,-0.029,0.041,-0.038,22.65,-25.8,34.95,65.0
1786369075.5906422,-1.264,-2.547,9.486,-0.006,0.014,0.0,24.3,-23.7,34.35,26.0
1786369075.590704,-1.566,-2.6,9.309,-0.009,-0.005,-0.002,22.8,-22.5,35.1,26.0
1786369075.59073,-1.499,-2.579,9.378,-0.016,-0.032,0.01,21.9,-21.6,34.5,26.0
1786369075.7951455,-1.245,-2.507,9.448,-0.013,0.044,0.016,21.9,-25.05,32.7,56.0
1786369075.7951996,-1.508,-2.394,9.407,-0.024,0.028,-0.001,24.15,-23.85,34.2,56.0
1786369075.7952235,-1.401,-2.416,9.369,-0.026,0.007,-0.004,22.8,-23.25,33.9,56.0
1786369076.0011976,-1.413,-2.693,9.39,-0.024,0.053,-0.038,21.9,-23.1,33.0,54.0
1786369076.0012438,-1.319,-2.528,9.452,0.01,0.059,-0.015,23.85,-22.8,34.5,54.0
1786369076.0012648,-1.472,-2.243,9.476,0.009,0.06,-0.032,23.1,-21.6,34.95,54.0
1786369076.205056,-1.511,-2.452,9.328,-0.017,0.001,0.032,22.8,-22.5,34.35,68.0
1786369076.2051172,-1.528,-2.514,9.402,-0.019,-0.02,0.024,23.1,-22.8,35.25,68.0
1786369076.205143,-1.413,-2.547,9.395,-0.023,-0.019,0.018,23.55,-21.75,35.1,68.0
1786369076.4097748,-1.322,-2.437,9.459,-0.042,0.007,-0.026,21.75,-22.5,35.85,67.0
1786369076.409863,-1.398,-2.54,9.412,-0.044,-0.001,-0.049,23.1,-22.35,33.75,67.0
1786369076.409895,-1.231,-2.895,9.388,-0.034,0.02,-0.051,22.5,-24.45,35.1,67.0
1786369076.6148126,-0.666,-2.116,9.44,-0.012,0.069,0.067,24.15,-21.9,34.5,65.0
1786369076.614857,-1.757,-2.32,9.45,-0.005,0.021,-0.016,23.85,-22.35,34.95,65.0
1786369076.6148758,-1.537,-2.444,9.33,-0.007,0.001,0.01,23.55,-22.95,35.1,65.0
1786369076.8191605,-1.19,-2.425,9.452,-0.018,-0.037,0.026,22.35,-20.85,35.25,68.0
1786369076.8191984,-1.231,-2.416,9.397,-0.004,0.021,0.018,23.1,-22.8,35.25,68.0
1786369076.8192148,-1.25,-2.385,9.445,-0.01,0.049,0.016,23.1,-21.6,36.3,68.0
1786369077.0244303,-1.573,-2.246,9.409,0.014,0.019,-0.026,24.75,-20.55,33.6,63.0
1786369077.0245652,-1.441,-2.1,9.4,0.002,0.0,-0.009,24.0,-22.5,34.65,63.0
1786369077.0246034,-1.379,-2.253,9.443,-0.011,-0.012,-0.009,24.3,-21.0,36.15,63.0
1786369077.228873,-1.247,-2.538,9.426,-0.018,0.018,0.003,23.1,-22.35,34.95,60.0
1786369077.2289433,-1.393,-2.545,9.412,-0.018,0.014,0.014,23.1,-21.6,34.5,60.0
1786369077.2289734,-1.535,-2.571,9.404,-0.022,-0.014,0.02,22.8,-22.95,33.3,67.0
1786369077.43445,-1.513,-2.586,9.397,-0.022,-0.03,0.016,23.4,-22.8,34.5,67.0
1786369077.434542,-1.427,-2.567,9.395,-0.021,-0.023,0.014,21.75,-21.75,34.65,67.0
1786369077.4345663,-1.379,-2.593,9.471,-0.018,-0.005,0.014,22.35,-21.9,33.75,67.0
1786369077.6390197,-1.607,-2.444,9.38,-0.009,0.009,0.013,23.1,-21.15,36.75,48.0
1786369077.6390893,-1.444,-2.464,9.369,-0.015,-0.012,0.018,24.3,-22.2,34.65,48.0
1786369077.6391184,-1.257,-2.473,9.404,-0.011,0.001,0.028,22.65,-21.9,34.2,48.0
1786369077.8431122,-1.295,-2.452,9.491,-0.008,0.05,0.026,23.4,-23.1,34.5,61.0
1786369077.8431861,-1.492,-2.337,9.349,-0.013,0.045,0.023,23.25,-22.5,34.35,61.0
1786369077.8432171,-1.341,-2.492,9.457,-0.019,0.041,0.009,24.0,-22.95,36.9,61.0
1786369078.0480087,-1.293,-2.643,9.347,-0.013,0.027,-0.007,23.25,-22.2,35.1,78.0
1786369078.0480547,-1.403,-2.495,9.349,-0.001,0.067,0.001,24.15,-21.15,34.5,78.0
1786369078.048076,-1.575,-2.21,9.438,0.019,0.059,-0.036,25.05,-22.5,34.35,78.0
1786369078.2529705,-1.463,-2.593,9.395,-0.02,0.013,0.006,24.0,-22.95,36.15,76.0
1786369078.2530427,-1.621,-2.626,9.342,-0.023,-0.008,0.007,24.0,-21.45,35.4,76.0
1786369078.2530708,-1.47,-2.595,9.364,-0.025,-0.019,0.015,22.65,-22.35,35.55,76.0
1786369078.458115,-1.58,-2.428,9.404,-0.02,-0.01,0.001,24.15,-21.9,36.0,59.0
1786369078.4581752,-1.525,-2.452,9.419,-0.034,-0.006,0.008,24.45,-23.1,36.3,59.0
1786369078.4582062,-1.458,-2.576,9.433,-0.028,-0.002,-0.002,23.1,-23.1,35.55,59.0
1786369078.668764,-1.398,-2.49,9.369,-0.017,0.022,0.001,23.1,-22.35,35.55,62.0
1786369078.6688154,-1.547,-2.579,9.426,-0.014,0.014,-0.007,23.1,-22.35,35.25,54.0
1786369078.6688373,-1.642,-2.614,9.404,-0.016,0.001,0.0,23.25,-21.45,35.4,54.0
1786369078.8740492,-1.403,-2.294,9.4,-0.029,0.051,-0.018,24.45,-21.6,36.3,32.0
1786369078.8741283,-1.585,-2.356,9.433,-0.028,0.028,-0.026,22.5,-20.55,35.85,32.0
1786369078.8741634,-1.578,-2.361,9.404,-0.029,0.007,-0.009,24.3,-21.75,35.4,59.0
1786369079.0719707,-1.59,-1.987,9.419,0.01,0.031,-0.006,24.3,-21.0,35.4,70.0
1786369079.0720122,-1.549,-2.069,9.352,-0.011,-0.003,0.014,24.75,-21.0,35.4,70.0
1786369079.0720308,-1.568,-2.2,9.397,-0.019,-0.028,0.021,24.75,-19.8,36.15,64.0
1786369079.2769217,-1.456,-2.466,9.39,-0.026,-0.013,0.014,24.0,-19.5,36.15,64.0
1786369079.277019,-1.295,-2.399,9.416,-0.028,0.009,0.005,24.15,-22.35,34.5,64.0
1786369079.27706,-1.487,-2.322,9.364,-0.028,0.036,-0.01,22.65,-22.8,35.25,63.0
1786369079.4815276,-1.384,-2.835,9.431,-0.011,0.029,0.001,24.9,-20.85,38.25,49.0
1786369079.4815755,-1.604,-2.643,9.342,-0.009,0.022,-0.005,24.15,-21.6,36.3,49.0
1786369079.4815948,-1.504,-2.535,9.383,-0.012,0.028,0.003,24.75,-21.45,36.6,61.0
1786369079.68645,-1.731,-2.363,9.349,-0.007,-0.005,-0.011,23.85,-20.1,37.05,50.0
1786369079.68653,-1.568,-2.399,9.378,-0.015,-0.043,-0.002,24.45,-21.9,35.25,50.0
1786369079.6865523,-1.389,-2.397,9.433,-0.023,-0.045,0.0,23.1,-21.9,37.05,50.0
1786369079.891923,-1.477,-2.734,9.328,-0.02,0.016,0.001,22.35,-22.35,34.95,68.0
1786369079.8919926,-1.559,-2.737,9.369,-0.016,0.013,0.01,22.8,-22.95,36.6,68.0
1786369079.8920212,-1.516,-2.595,9.416,-0.01,0.007,0.008,24.0,-21.45,33.6,68.0
1786369080.0988772,-1.542,-2.567,9.354,-0.022,-0.011,0.016,24.15,-21.9,35.55,61.0
1786369080.0989275,-1.65,-2.677,9.409,-0.02,-0.027,0.009,23.25,-23.25,35.85,61.0
1786369080.0989494,-1.319,-2.61,9.404,-0.016,-0.021,0.006,21.9,-21.9,35.25,61.0
1786369080.3012054,-1.525,-2.746,9.323,-0.04,-0.004,-0.043,23.85,-22.8,36.0,82.0
1786369080.301253,-1.504,-2.928,9.301,-0.04,0.018,-0.05,24.3,-21.0,35.85,82.0
1786369080.3012743,-1.559,-2.873,9.333,-0.025,0.015,-0.028,23.1,-22.8,36.75,82.0
1786369080.5062556,-1.578,-2.143,9.364,-0.027,-0.018,0.019,23.55,-20.55,36.15,69.0
1786369080.506311,-1.489,-2.435,9.419,-0.023,-0.032,0.027,23.85,-21.0,35.4,69.0
1786369080.5063324,-1.329,-2.507,9.438,-0.036,-0.02,0.02,23.25,-21.45,36.15,69.0
1786369080.710305,-1.583,-2.296,9.392,-0.006,-0.015,-0.003,23.55,-21.45,36.15,27.0
1786369080.7104027,-1.465,-2.37,9.395,0.003,-0.007,0.003,23.1,-21.9,36.0,27.0
1786369080.7104545,-1.262,-2.404,9.373,0.006,0.036,0.003,23.4,-21.9,36.3,27.0
1786369080.9150968,-1.444,-2.473,9.376,0.018,0.047,0.019,24.0,-22.5,35.85,64.0
1786369080.9151413,-1.616,-2.468,9.419,0.019,0.027,0.015,23.4,-21.9,37.05,30.0
1786369080.915161,-1.712,-2.258,9.244,0.007,0.013,0.026,23.85,-20.4,37.05,30.0
1786369081.120854,-1.171,-2.492,9.388,-0.021,0.021,-0.002,26.4,-20.1,36.0,28.0
1786369081.1208951,-1.542,-2.313,9.419,-0.018,0.044,-0.003,24.75,-20.25,36.15,34.0
1786369081.120925,-1.827,-2.356,9.397,-0.023,-0.015,-0.018,24.9,-20.1,36.3,34.0
1786369081.3252316,-1.482,-2.38,9.443,-0.02,0.007,0.011,25.65,-20.4,37.5,31.0
1786369081.325307,-1.465,-2.373,9.378,-0.018,0.001,0.01,24.9,-19.65,37.5,39.0
1786369081.325339,-1.492,-2.421,9.443,-0.008,0.009,0.014,24.3,-20.55,35.85,39.0
1786369081.5301344,-1.403,-2.449,9.44,-0.023,0.009,0.02,23.55,-21.0,36.15,71.0
1786369081.530188,-1.372,-2.547,9.397,-0.021,0.024,0.016,25.05,-22.2,37.65,81.0
1786369081.5302172,-1.592,-2.373,9.378,-0.023,0.007,0.006,25.8,-22.2,36.6,81.0
1786369081.7348669,-1.652,-2.332,9.416,-0.013,0.003,-0.007,24.3,-21.75,36.15,70.0
1786369081.734918,-1.547,-2.356,9.428,-0.018,-0.003,0.005,25.05,-22.2,37.65,70.0
1786369081.7349398,-1.487,-2.375,9.431,-0.008,-0.002,0.001,23.4,-20.85,37.05,35.0
1786369081.9397762,-1.662,-2.406,9.376,-0.014,0.015,-0.015,25.2,-20.85,36.75,29.0
1786369081.939847,-1.499,-2.344,9.397,-0.016,0.003,-0.009,25.8,-21.45,36.15,29.0
1786369081.9398823,-1.47,-2.404,9.407,-0.013,0.007,-0.01,24.0,-20.55,36.9,29.0
1786369082.144159,-1.499,-2.344,9.404,-0.018,-0.019,-0.01,24.75,-21.45,37.2,36.0
1786369082.14424,-1.453,-2.399,9.419,-0.015,-0.011,-0.004,22.65,-21.6,36.75,36.0
1786369082.144276,-1.386,-2.373,9.459,-0.01,0.008,-0.005,25.2,-21.6,37.5,36.0
1786369082.3489022,-1.448,-2.368,9.357,-0.014,0.004,-0.003,24.3,-21.0,38.4,78.0
1786369082.348956,-1.355,-2.375,9.462,-0.016,0.006,0.001,23.1,-20.85,37.5,78.0
1786369082.3489773,-1.494,-2.385,9.397,-0.016,0.012,-0.001,24.9,-20.1,36.75,78.0
1786369082.5547113,-1.551,-2.346,9.433,-0.019,0.014,0.003,25.2,-21.9,35.55,84.0
1786369082.5547924,-1.482,-2.43,9.376,-0.017,-0.003,-0.014,24.15,-21.6,36.75,84.0
1786369082.554822,-1.362,-2.459,9.395,-0.016,0.004,-0.009,24.75,-20.25,37.2,84.0
1786369082.7588062,-1.439,-2.363,9.459,-0.015,0.004,-0.003,25.5,-21.0,36.6,26.0
1786369082.7590513,-1.458,-2.351,9.376,-0.019,0.008,0.002,24.45,-20.85,36.0,26.0
1786369082.759079,-1.489,-2.406,9.464,-0.007,0.006,0.004,24.75,-21.0,36.6,26.0
1786369082.963369,-1.477,-2.363,9.409,-0.01,0.006,-0.004,23.85,-21.9,37.8,30.0
1786369082.9634326,-1.348,-2.399,9.438,-0.012,0.021,0.004,25.8,-20.55,36.6,30.0
1786369082.9634588,-1.46,-2.334,9.431,-0.008,0.014,0.008,24.45,-21.15,37.5,30.0
1786369083.1679811,-1.429,-2.318,9.445,-0.017,0.016,-0.005,23.25,-22.2,36.9,76.0
1786369083.1680598,-1.475,-2.368,9.409,-0.015,0.015,0.0,23.85,-20.85,37.8,76.0
1786369083.168097,-1.403,-2.365,9.433,-0.012,0.021,-0.003,23.4,-21.9,36.0,76.0
1786369083.3744621,-1.41,-2.301,9.448,-0.022,-0.005,-0.003,25.05,-21.75,37.65,80.0
1786369083.3746088,-1.441,-2.286,9.428,-0.015,-0.006,-0.001,24.9,-21.15,36.0,80.0
1786369083.3746452,-1.403,-2.282,9.431,-0.014,-0.006,-0.006,23.4,-20.85,37.5,80.0
1786369083.578467,-1.53,-2.365,9.414,-0.015,0.006,-0.004,25.05,-19.5,37.2,27.0
1786369083.5785656,-1.437,-2.339,9.419,-0.021,-0.006,-0.006,24.3,-22.2,37.65,27.0
1786369083.5785916,-1.398,-2.363,9.445,-0.018,0.013,0.005,25.05,-21.75,37.95,33.0
1786369083.7825909,-1.439,-2.375,9.486,-0.012,0.01,0.002,24.45,-20.85,36.75,31.0
1786369083.7826295,-1.396,-2.363,9.402,-0.015,0.003,0.001,25.5,-21.45,36.6,31.0
1786369083.7826457,-1.365,-2.38,9.421,-0.014,0.014,0.003,23.55,-20.55,38.4,31.0
1786369083.9872339,-1.391,-2.33,9.476,-0.019,0.013,-0.011,24.0,-21.75,36.9,83.0
1786369083.9872916,-1.415,-2.303,9.464,-0.017,0.008,-0.012,23.4,-21.15,35.25,83.0
1786369083.9873147,-1.511,-2.339,9.443,-0.015,0.005,-0.002,23.85,-20.4,36.3,83.0
1786369084.1930482,-1.31,-2.308,9.424,-0.021,0.004,0.015,23.4,-21.6,37.5,67.0
1786369084.193147,-1.482,-2.286,9.469,-0.021,0.013,0.014,23.85,-22.35,37.5,67.0
1786369084.1931932,-1.501,-2.31,9.402,-0.022,-0.001,0.018,24.15,-21.9,36.75,67.0
1786369084.39684,-1.391,-2.306,9.419,-0.023,0.002,0.0,23.25,-20.55,37.2,65.0
1786369084.396899,-1.403,-2.325,9.424,-0.028,0.01,0.004,23.25,-21.75,37.65,65.0
1786369084.3969257,-1.477,-2.404,9.424,-0.028,-0.001,0.002,24.75,-21.0,35.4,65.0
1786369084.602778,-2.002,-2.492,9.838,-0.047,0.026,-0.034,24.15,-22.35,34.95,74.0
1786369084.6028383,-1.417,-2.289,9.33,-0.045,0.023,-0.034,25.05,-20.25,35.85,74.0
1786369084.602863,-1.482,-2.354,9.369,-0.03,0.011,-0.012,24.9,-22.8,35.25,74.0
1786369084.8073916,-1.542,-2.423,9.385,-0.061,0.003,-0.001,24.15,-21.6,37.05,76.0
1786369084.8075285,-1.42,-2.485,9.385,-0.061,-0.003,-0.008,24.9,-21.9,33.45,76.0
1786369084.8075678,-1.314,-2.509,9.409,-0.051,0.016,-0.012,23.55,-20.55,34.65,76.0
1786369085.0122843,-1.528,-2.31,9.414,-0.016,0.036,-0.016,24.9,-20.4,35.55,70.0
1786369085.0123532,-1.48,-2.344,9.428,-0.026,0.031,-0.011,25.05,-19.8,35.1,70.0
1786369085.0123777,-1.547,-2.425,9.39,-0.027,0.025,0.001,24.45,-22.8,33.75,70.0
1786369085.2159069,-1.271,-2.358,9.397,-0.042,-0.002,0.004,25.2,-20.4,36.0,78.0
1786369085.2160003,-1.358,-2.394,9.373,-0.044,0.018,-0.004,25.5,-20.25,36.15,71.0
1786369085.216045,-1.525,-2.49,9.414,-0.033,0.003,-0.007,22.8,-22.5,33.6,71.0
1786369085.421002,-1.554,-2.346,9.409,-0.027,0.047,0.001,23.25,-22.95,35.1,64.0
1786369085.421058,-1.444,-2.212,8.701,-0.058,0.018,-0.001,22.5,-21.75,36.15,52.0
1786369085.4210806,-1.63,-2.5,9.428,-0.021,-0.007,0.015,25.05,-21.75,36.15,52.0
1786369085.6258273,-1.501,-1.487,9.254,-0.058,-0.039,0.027,24.3,-20.25,36.6,63.0
1786369085.625903,-1.348,-2.045,9.455,-0.08,-0.046,0.036,25.2,-20.85,35.25,67.0
1786369085.625935,-1.343,-2.346,9.416,-0.066,-0.02,0.031,25.2,-22.35,34.95,67.0
1786369085.829866,-1.223,-2.466,9.5,-0.018,-0.027,-0.029,24.3,-24.15,34.65,61.0
1786369085.8299215,-1.123,-2.392,9.392,-0.017,0.041,-0.037,23.25,-22.2,34.35,61.0
1786369086.0419354,-1.369,-2.473,9.402,-0.035,-0.003,0.012,24.9,-22.35,33.45,55.0
1786369086.042017,-1.13,-2.521,9.402,-0.013,0.032,-0.001,24.15,-21.6,35.25,55.0
1786369086.0420551,-1.374,-2.545,9.436,0.004,0.055,-0.03,22.8,-20.55,33.9,50.0
1786369086.2407815,-1.381,-2.571,9.416,-0.024,-0.001,0.004,23.55,-21.75,35.1,50.0
1786369086.2408552,-1.48,-2.636,9.39,-0.023,-0.003,-0.005,25.05,-21.75,35.4,50.0
1786369086.2408876,-1.41,-2.631,9.383,-0.027,0.008,-0.005,25.65,-22.35,34.2,63.0
1786369086.4448133,-1.29,-2.535,9.371,-0.014,0.022,0.006,24.3,-21.45,35.1,69.0
1786369086.4448798,-1.46,-2.523,9.383,-0.014,0.044,0.0,24.0,-22.5,35.85,69.0
1786369086.4449058,-1.544,-2.55,9.378,-0.023,0.035,0.007,25.05,-20.55,35.4,69.0
1786369086.6505415,-1.741,-2.342,9.397,-0.031,-0.059,0.012,26.25,-21.0,35.4,55.0
1786369086.6505926,-1.595,-2.509,9.39,-0.033,-0.107,0.006,25.05,-20.25,34.65,55.0
1786369086.6506138,-1.286,-2.509,9.407,-0.04,-0.107,-0.01,24.15,-21.9,34.95,55.0
1786369086.8550038,-1.539,-2.497,9.333,-0.009,0.045,0.005,23.85,-21.9,36.0,53.0
1786369086.8550546,-1.604,-2.593,9.416,-0.011,0.023,0.018,23.55,-21.75,35.1,53.0
1786369086.8550763,-1.477,-2.643,9.397,-0.017,0.007,0.009,25.05,-20.25,34.35,53.0
1786369087.059326,-1.575,-2.33,9.4,-0.038,-0.007,0.02,26.25,-20.25,36.15,65.0
1786369087.0594006,-1.573,-2.483,9.354,-0.04,-0.03,0.011,25.65,-20.4,33.45,65.0
1786369087.059434,-1.417,-2.535,9.416,-0.031,-0.053,-0.003,24.3,-21.45,35.1,65.0
1786369087.264102,-1.307,-2.461,9.416,-0.02,0.032,-0.013,23.85,-22.8,33.45,43.0
1786369087.2641652,-1.439,-2.382,9.412,-0.015,0.039,-0.01,23.25,-20.55,35.1,43.0
1786369087.2641923,-1.35,-2.375,9.416,-0.022,0.04,-0.009,23.4,-21.6,34.5,43.0
1786369087.4690583,-1.547,-2.682,9.333,0.034,0.023,0.014,26.7,-21.9,36.0,43.0
1786369087.4691086,-1.374,-2.576,9.471,0.043,0.074,-0.019,27.9,-19.65,34.95,43.0
1786369087.46913,-1.269,-2.732,9.278,0.05,0.065,-0.119,25.05,-19.8,36.15,43.0
1786369087.674107,-1.367,-2.897,9.471,-0.044,0.043,-0.045,24.9,-22.35,34.5,64.0
1786369087.6741672,-1.638,-2.945,9.404,-0.025,0.045,-0.037,25.05,-21.75,34.65,53.0
1786369087.674192,-1.599,-2.782,9.407,-0.022,0.028,-0.033,23.4,-20.4,34.5,53.0
1786369087.878541,-1.666,-2.665,9.371,0.001,0.026,0.019,25.2,-20.85,34.95,61.0
1786369087.878598,-1.554,-2.48,9.373,0.008,0.002,0.022,25.8,-19.05,35.4,50.0
1786369087.8786197,-1.477,-2.626,9.388,0.014,0.007,0.016,25.05,-21.0,35.4,50.0
1786369088.0832937,-1.575,-2.081,9.404,-0.064,-0.029,0.008,24.3,-20.55,35.4,68.0
1786369088.0833461,-1.386,-2.114,9.402,-0.064,-0.03,0.005,25.95,-20.85,35.55,61.0
1786369088.0833676,-1.535,-2.533,9.352,-0.085,-0.004,-0.071,24.45,-21.6,35.55,61.0
1786369088.2885427,-1.69,-1.891,9.85,-0.011,0.021,0.004,24.75,-19.5,36.6,56.0
1786369088.2886055,-1.444,-1.81,9.426,-0.024,-0.011,0.047,24.3,-19.8,34.65,60.0
1786369088.2886322,-1.001,-1.882,9.428,-0.02,0.036,0.01,23.85,-18.45,33.75,60.0
1786369088.4930887,-1.611,-2.318,9.388,-0.049,-0.016,-0.004,25.65,-18.15,35.55,57.0
1786369088.4931576,-1.499,-2.531,9.404,-0.043,-0.001,-0.012,25.05,-19.8,35.1,57.0
1786369088.4931881,-1.441,-2.48,9.371,-0.032,0.034,-0.023,23.85,-18.45,36.3,57.0
1786369088.6982872,-1.587,-2.425,9.395,0.005,0.031,-0.007,25.05,-19.5,35.4,60.0
1786369088.6983376,-1.587,-2.468,9.404,0.004,0.029,-0.007,25.2,-17.7,38.25,60.0
1786369088.6983583,-1.465,-2.497,9.448,-0.002,0.046,0.009,26.7,-19.2,38.25,60.0
1786369088.9028757,-1.697,-2.653,9.371,-0.021,-0.01,0.005,24.3,-19.05,37.2,58.0
1786369088.9029362,-1.676,-2.478,9.378,-0.018,-0.021,0.008,25.2,-18.9,37.05,58.0
1786369088.9029617,-1.511,-2.485,9.337,-0.013,-0.013,0.022,25.5,-19.05,38.4,58.0
1786369089.107435,-1.779,-2.653,9.345,-0.022,0.045,-0.019,24.9,-18.45,37.8,68.0
1786369089.1075604,-1.662,-2.722,9.371,-0.021,0.048,-0.021,24.75,-18.3,37.2,68.0
1786369089.1075914,-1.657,-2.667,9.359,-0.016,0.049,-0.018,25.2,-18.15,37.5,68.0
1786369089.3121321,-1.595,-2.5,9.402,-0.007,0.032,-0.018,26.55,-15.9,38.7,27.0
1786369089.3122015,-1.76,-2.461,9.364,0.001,0.03,-0.014,26.7,-18.15,38.25,27.0
1786369089.312231,-1.762,-2.224,9.352,-0.003,0.009,-0.011,24.75,-17.55,38.7,27.0
1786369089.516931,-1.635,-2.318,9.378,-0.009,0.015,0.002,25.8,-17.1,39.15,31.0
1786369089.5169723,-1.556,-2.229,9.371,-0.014,0.023,-0.002,27.3,-17.1,37.95,31.0
1786369089.5169897,-1.621,-2.327,9.33,-0.016,0.022,0.001,25.95,-17.7,37.8,31.0
1786369089.7217689,-1.63,-2.193,9.345,-0.02,0.045,0.003,26.4,-18.15,38.25,63.0
1786369089.7218444,-1.745,-2.291,9.373,-0.022,0.029,-0.001,25.65,-19.2,38.25,63.0
1786369089.721879,-1.86,-2.413,9.38,-0.028,0.009,-0.004,27.0,-20.25,38.4,63.0
1786369089.9267218,-1.662,-2.222,9.378,0.001,-0.011,0.023,26.55,-18.3,38.7,68.0
1786369089.9268022,-1.561,-2.289,9.357,-0.008,-0.003,0.03,25.8,-17.55,38.4,68.0
1786369089.9268374,-1.736,-2.423,9.364,-0.014,-0.005,0.029,25.5,-18.3,38.4,68.0
1786369090.1312447,-1.697,-2.449,9.416,-0.028,0.04,-0.031,25.8,-19.8,38.4,60.0
1786369090.131295,-1.657,-2.634,9.318,-0.037,0.016,-0.028,24.9,-17.7,36.75,60.0
1786369090.1313167,-1.731,-2.83,9.313,-0.023,0.037,-0.027,25.95,-18.15,37.05,59.0
1786369090.3364499,-1.923,-2.356,9.452,0.013,0.092,0.036,27.0,-16.35,38.4,68.0
1786369090.336557,-1.803,-2.236,9.304,0.009,0.046,0.019,26.25,-16.35,40.2,68.0
1786369090.3365836,-1.75,-2.361,9.349,-0.006,0.012,0.033,25.8,-16.35,38.7,35.0
1786369090.5407913,-1.609,-2.294,9.354,-0.027,-0.005,0.032,28.05,-17.1,38.7,64.0
1786369090.5408304,-1.829,-2.049,9.335,-0.05,-0.019,0.036,25.8,-17.85,39.15,64.0
1786369090.5408478,-1.633,-2.21,9.376,-0.057,-0.006,0.013,24.45,-18.15,37.8,69.0
1786369090.7464697,-1.709,-2.861,9.409,-0.049,0.009,0.058,24.3,-17.55,38.7,66.0
1786369090.7465432,-1.671,-3.261,9.196,-0.025,0.061,0.0,23.1,-18.45,37.8,66.0
1786369090.7465653,-1.884,-2.844,9.299,-0.022,0.051,0.002,25.05,-19.05,38.4,66.0
1786369090.9503586,-1.628,-2.057,9.342,-0.021,0.039,-0.027,25.95,-17.7,37.5,77.0
1786369090.9504216,-1.676,-2.143,9.426,-0.003,0.038,-0.02,26.55,-17.85,38.4,77.0
1786369090.9504547,-1.939,-2.14,9.457,-0.034,0.006,-0.035,26.4,-18.9,38.55,77.0
1786369091.1613133,-1.812,-2.5,9.347,-0.018,0.029,-0.021,24.0,-19.05,38.4,65.0
1786369091.1613905,-1.618,-2.473,9.404,0.003,0.038,-0.011,25.2,-20.1,38.55,65.0
1786369091.1614208,-1.59,-2.303,9.4,0.001,0.054,-0.017,26.25,-18.3,38.7,65.0
1786369091.361136,-1.832,-2.732,9.409,0.006,0.016,-0.02,25.8,-17.85,37.95,50.0
1786369091.3612306,-1.846,-2.533,9.258,0.005,0.014,-0.015,25.95,-16.95,39.0,50.0
1786369091.3612797,-1.719,-2.251,9.321,0.003,0.011,-0.001,27.15,-18.9,38.55,50.0
1786369091.5652053,-1.695,-2.909,9.335,-0.019,0.011,-0.034,24.45,-18.9,38.25,64.0
1786369091.5652559,-1.774,-2.727,9.299,-0.026,0.012,-0.017,25.05,-19.05,36.9,64.0
1786369091.5652783,-1.81,-2.456,9.373,-0.035,-0.004,-0.003,24.3,-19.5,39.15,64.0
1786369091.7707756,-1.686,-2.684,9.354,-0.008,0.016,0.013,24.9,-18.45,40.05,53.0
1786369091.7708268,-1.697,-2.612,9.33,-0.015,0.033,0.006,24.9,-17.7,37.8,55.0
1786369091.770848,-1.741,-2.689,9.347,-0.015,0.042,-0.002,25.05,-17.85,37.65,55.0
1786369091.9750037,-1.674,-2.55,9.409,-0.025,0.034,-0.029,23.85,-19.2,37.5,54.0
1786369091.9750736,-1.812,-2.629,9.306,-0.03,0.029,-0.025,24.45,-18.15,37.8,54.0
1786369091.9751031,-1.966,-2.528,9.366,-0.031,-0.006,-0.012,25.2,-18.15,37.05,54.0
1786369092.179507,-1.724,-2.382,9.373,-0.005,0.022,-0.009,24.75,-19.5,39.45,55.0
1786369092.179583,-1.604,-2.387,9.294,-0.007,0.035,0.0,24.0,-19.05,38.4,60.0
1786369092.179619,-1.765,-2.351,9.349,-0.012,0.034,0.003,25.8,-18.75,37.95,60.0
1786369092.3845935,-1.542,-2.547,9.436,0.046,0.034,-0.015,26.4,-16.95,39.0,56.0
1786369092.38466,-1.676,-1.992,9.498,0.027,0.085,-0.014,25.95,-16.95,39.0,68.0
1786369092.3846807,-1.681,-1.587,9.151,0.006,0.024,0.029,27.3,-16.8,39.9,68.0
1786369092.5891035,-1.717,-3.002,9.273,-0.046,0.026,-0.097,24.15,-18.9,38.25,67.0
1786369092.5891721,-1.776,-3.124,9.208,-0.021,0.031,-0.103,23.1,-17.4,39.6,67.0
1786369092.5892005,-1.815,-3.203,9.306,-0.004,0.028,-0.037,24.0,-20.55,38.4,61.0
1786369092.7938325,-1.776,-2.291,9.416,-0.001,0.079,0.003,25.2,-16.2,40.8,66.0
1786369092.7939131,-1.954,-2.488,9.28,-0.01,0.037,-0.013,26.7,-17.4,39.6,66.0
1786369092.7939517,-2.033,-2.837,9.318,-0.007,-0.005,0.01,25.2,-16.5,39.3,56.0
1786369092.9990234,-1.465,-2.241,9.369,-0.082,-0.065,0.026,25.95,-16.95,39.0,80.0
1786369092.999071,-1.621,-2.488,9.385,-0.076,-0.01,-0.011,23.85,-17.4,38.25,80.0
1786369092.999091,-1.805,-2.389,9.404,-0.068,0.0,-0.027,25.05,-16.8,39.45,25.0
1786369093.2038567,-1.781,-2.313,9.306,0.026,0.092,0.014,25.2,-16.5,39.6,54.0
1786369093.2039034,-1.846,-2.145,9.385,0.026,0.089,0.017,27.0,-17.85,38.4,54.0
1786369093.2039242,-2.04,-2.169,9.352,0.005,0.053,0.014,27.75,-14.1,40.2,73.0
1786369093.4087207,-1.595,-2.729,9.378,-0.025,-0.044,-0.034,25.8,-15.9,38.7,24.0
1786369093.4087963,-1.654,-2.758,9.328,-0.023,0.002,-0.061,25.8,-18.3,39.9,24.0
1786369093.4088268,-1.717,-2.602,9.383,-0.012,0.029,-0.054,25.8,-16.35,37.65,24.0
1786369093.6134088,-1.832,-2.425,9.256,-0.039,-0.017,-0.005,25.2,-16.5,40.05,22.0
1786369093.6134706,-1.59,-2.629,9.354,-0.039,-0.019,0.002,25.05,-17.1,39.9,22.0
1786369093.6135273,-1.767,-2.404,9.34,-0.015,0.006,0.0,26.25,-15.9,40.65,22.0
1786369093.819276,-1.877,-2.485,9.285,-0.016,-0.003,0.006,25.2,-16.5,40.35,58.0
1786369093.8193269,-1.788,-2.404,9.335,-0.006,-0.029,-0.023,25.5,-16.35,39.45,58.0
1786369094.0225296,-1.829,-2.48,9.366,-0.009,-0.008,0.001,24.9,-16.95,40.05,61.0
1786369094.0225863,-1.798,-2.44,9.352,-0.01,-0.004,-0.002,26.55,-17.55,39.45,61.0
1786369094.0226092,-1.784,-2.363,9.321,-0.01,-0.012,0.006,25.65,-16.95,39.6,61.0
1786369094.227373,-1.657,-2.277,9.385,-0.022,0.024,-0.016,24.9,-18.45,40.35,64.0
1786369094.227446,-1.664,-2.267,9.383,-0.023,0.04,-0.016,26.55,-17.1,38.4,64.0
1786369094.2275057,-1.75,-2.289,9.342,-0.033,0.043,-0.002,26.4,-16.95,38.55,64.0
1786369094.4325736,-1.712,-2.794,9.383,-0.021,-0.008,-0.003,25.8,-15.9,40.2,61.0
1786369094.4326172,-1.654,-2.772,9.333,-0.02,0.028,-0.023,26.55,-16.35,41.25,71.0
1786369094.4326363,-1.757,-2.854,9.373,0.013,0.062,-0.005,25.95,-16.2,39.6,71.0
1786369094.6368048,-1.762,-2.251,9.304,-0.013,0.009,0.006,26.25,-17.1,40.95,32.0
1786369094.6368594,-1.671,-2.411,9.376,-0.015,0.01,-0.007,24.15,-15.75,39.6,29.0
1786369094.6368828,-1.882,-2.406,9.412,-0.01,0.021,-0.005,26.4,-16.5,40.05,29.0
1786369094.8506541,-1.815,-2.543,9.328,-0.023,-0.009,-0.002,26.25,-17.1,39.9,75.0
1786369094.850715,-1.793,-2.442,9.352,-0.02,-0.015,-0.005,26.4,-15.0,39.3,70.0
1786369094.8507404,-1.721,-2.421,9.369,-0.016,0.008,-0.012,26.25,-14.85,40.65,70.0
1786369095.0465696,-1.81,-2.526,9.335,-0.016,0.052,-0.014,27.3,-16.8,40.2,91.0
1786369095.0466383,-1.808,-2.528,9.33,-0.021,0.038,-0.03,25.5,-15.6,40.95,91.0
1786369095.0466654,-1.958,-2.49,9.342,-0.031,0.023,-0.028,25.8,-15.9,39.9,91.0
1786369095.2511487,-1.748,-2.342,9.414,-0.007,0.035,0.023,27.15,-15.75,40.35,34.0
1786369095.2512052,-1.896,-2.361,9.335,-0.001,0.031,0.025,25.8,-14.4,41.7,34.0
1786369095.2512298,-1.856,-2.332,9.349,0.001,0.02,0.026,25.95,-15.0,41.55,34.0
1786369095.4566214,-1.951,-2.442,9.366,0.005,0.038,-0.011,25.05,-15.15,42.75,31.0
1786369095.4566998,-1.937,-2.368,9.347,0.004,0.029,0.001,26.55,-15.15,41.25,31.0
1786369095.4567263,-1.937,-2.401,9.359,-0.014,0.009,-0.004,27.0,-15.9,41.7,31.0
1786369095.6608274,-1.87,-2.339,9.33,-0.003,0.002,-0.013,27.45,-16.2,40.8,79.0
1786369095.6608968,-1.707,-2.411,9.416,-0.016,0.016,-0.006,26.4,-15.75,41.85,79.0
1786369095.6609256,-1.872,-2.404,9.352,-0.006,0.02,0.003,26.4,-15.0,42.3,79.0
1786369095.8656845,-1.827,-2.468,9.364,0.003,0.02,0.015,27.75,-16.35,40.2,36.0
1786369095.86574,-1.829,-2.38,9.33,0.004,0.023,0.012,26.7,-13.8,40.8,36.0
1786369095.8657615,-1.731,-2.377,9.388,0.004,0.029,0.012,27.0,-15.9,42.45,36.0
1786369096.0710151,-1.791,-2.296,9.385,-0.021,0.007,0.001,27.15,-14.55,41.55,26.0
1786369096.071088,-1.824,-2.322,9.409,-0.025,0.013,0.001,27.15,-16.5,41.1,26.0
1786369096.0711195,-1.911,-2.296,9.397,-0.027,0.011,0.005,27.0,-15.9,40.65,26.0
1786369096.2752702,-1.836,-2.31,9.309,-0.013,0.009,-0.005,27.15,-15.75,41.55,31.0
1786369096.2753482,-1.894,-2.387,9.337,-0.012,0.028,-0.007,27.3,-16.35,40.2,31.0
1786369096.275383,-1.937,-2.389,9.321,-0.007,0.03,-0.011,27.15,-15.45,42.6,31.0
1786369096.4800646,-1.8,-2.392,9.345,-0.018,0.013,-0.002,27.45,-14.55,42.3,70.0
1786369096.4801188,-1.903,-2.291,9.359,-0.024,0.019,0.001,27.0,-14.85,42.45,70.0
1786369096.4802666,-1.824,-2.358,9.412,-0.025,0.014,-0.001,25.5,-13.65,42.45,70.0
1786369096.6850452,-1.798,-2.267,9.376,-0.023,0.012,0.003,27.15,-13.8,41.85,28.0
1786369096.6850958,-1.896,-2.322,9.301,-0.024,0.008,-0.002,26.4,-14.25,41.85,28.0
1786369096.6851177,-2.042,-2.322,9.414,-0.027,-0.012,-0.001,27.15,-15.75,42.6,31.0
1786369096.8900828,-1.865,-2.315,9.388,-0.011,0.01,-0.003,28.05,-15.15,42.0,27.0
1786369096.890159,-1.906,-2.342,9.337,-0.016,0.004,-0.01,28.05,-15.15,42.0,27.0
1786369096.8901894,-1.901,-2.313,9.323,-0.022,0.015,-0.01,25.65,-13.05,42.3,31.0
1786369097.0968246,-1.927,-2.344,9.38,-0.018,0.009,-0.009,28.05,-15.15,42.0,28.0
1786369097.0968835,-1.839,-2.298,9.397,-0.015,0.011,-0.004,28.95,-13.8,42.6,28.0
1786369097.0969048,-1.911,-2.358,9.316,-0.018,0.022,-0.006,28.5,-15.6,41.25,33.0
1786369097.3000202,-1.949,-2.421,9.328,-0.015,0.007,-0.009,27.75,-14.85,42.0,34.0
1786369097.300076,-1.899,-2.421,9.395,-0.018,0.006,-0.002,27.45,-15.0,42.6,34.0
1786369097.3000991,-1.887,-2.339,9.299,-0.013,0.011,-0.01,27.75,-13.65,41.7,32.0
1786369097.5041256,-1.954,-2.354,9.342,-0.016,0.023,-0.002,25.65,-14.25,42.6,35.0
1786369097.5041637,-1.92,-2.308,9.311,-0.011,0.017,-0.01,27.9,-15.45,41.85,35.0
1786369097.5041802,-1.946,-2.344,9.323,-0.012,0.005,-0.006,27.45,-13.05,43.05,35.0
1786369097.7089686,-1.86,-2.296,9.347,-0.021,0.006,-0.005,28.8,-14.85,42.0,35.0
1786369097.709064,-1.856,-2.358,9.325,-0.021,0.009,0.001,28.65,-14.25,43.05,35.0
1786369097.709113,-1.891,-2.26,9.39,-0.02,0.004,0.009,27.3,-13.65,43.2,41.0
1786369097.9136014,-1.75,-2.303,9.39,-0.006,0.029,-0.026,27.45,-15.0,40.8,26.0
1786369097.9136727,-1.8,-2.157,9.359,-0.011,0.032,0.004,29.4,-15.45,41.1,26.0
1786369097.9136977,-1.896,-2.167,9.34,-0.016,0.035,0.014,27.9,-15.75,40.35,26.0
1786369098.1189096,-2.071,-2.538,9.285,-0.009,0.034,-0.011,27.3,-15.9,43.2,30.0
1786369098.11897,-2.03,-2.516,9.309,-0.006,0.02,-0.005,27.45,-14.55,41.55,30.0
1786369098.1189964,-2.057,-2.44,9.354,-0.014,0.011,-0.004,28.2,-13.8,41.55,30.0
1786369098.3285058,-1.879,-2.363,9.333,-0.019,0.002,0.006,27.9,-14.55,43.05,84.0
1786369098.3285775,-1.908,-2.332,9.304,-0.016,0.009,0.004,29.4,-14.55,42.3,84.0
1786369098.3286042,-1.906,-2.351,9.316,-0.018,0.003,0.006,29.4,-14.55,42.3,84.0
1786369098.5279367,-1.829,-2.382,9.266,-0.015,0.012,-0.004,27.75,-14.85,42.45,27.0
1786369098.5279922,-1.856,-2.389,9.357,-0.013,0.012,-0.004,27.45,-13.8,42.3,27.0
1786369098.5280156,-1.961,-2.325,9.287,-0.016,0.004,-0.001,28.5,-14.4,43.5,27.0
1786369098.7334628,-1.923,-2.351,9.335,-0.015,0.022,-0.004,27.45,-14.25,41.55,28.0
1786369098.7335389,-2.016,-2.337,9.333,-0.021,0.018,-0.006,27.15,-13.5,44.1,26.0
1786369098.7335598,-1.918,-2.351,9.306,-0.021,0.013,-0.007,27.0,-14.1,42.45,26.0
1786369098.9387457,-1.97,-2.306,9.27,-0.062,-0.03,-0.027,27.9,-14.25,41.55,84.0
1786369098.9388132,-1.99,-2.308,9.376,-0.07,-0.039,-0.028,27.75,-13.2,40.65,32.0
1786369098.9388413,-1.693,-2.533,9.584,-0.058,-0.051,-0.036,27.75,-14.85,41.25,32.0
1786369099.1426327,-1.781,-2.461,9.342,0.006,0.003,0.001,25.2,-15.0,42.6,73.0
1786369099.1427002,-1.784,-2.394,9.292,0.004,-0.006,0.005,26.7,-15.75,41.1,77.0
1786369099.1427288,-1.779,-2.502,9.347,0.001,-0.01,0.001,26.55,-17.1,40.2,77.0
1786369099.347384,-1.8,-2.298,9.301,-0.016,-0.012,-0.008,25.95,-15.0,40.35,75.0
1786369099.3474405,-1.887,-2.401,9.402,-0.017,-0.017,0.004,25.65,-16.2,40.05,75.0
1786369099.3474634,-1.774,-2.325,9.328,-0.026,-0.011,0.005,27.3,-14.4,41.25,78.0
1786369099.5526795,-1.788,-2.416,9.282,-0.048,-0.043,0.052,24.9,-18.9,39.3,97.0
1786369099.5527508,-1.671,-2.456,9.333,-0.049,-0.038,0.049,24.9,-16.95,38.55,97.0
1786369099.5527816,-1.563,-2.442,9.333,-0.052,-0.038,0.009,25.2,-18.15,39.6,75.0
1786369099.7572627,-1.566,-2.531,9.349,-0.023,0.017,0.005,23.55,-19.5,37.95,71.0
1786369099.7573278,-1.657,-2.535,9.333,-0.026,0.012,-0.018,24.0,-18.75,38.4,71.0
1786369099.7573545,-1.626,-2.581,9.4,-0.017,0.009,-0.024,24.0,-19.8,36.9,65.0
1786369099.9617329,-1.707,-2.562,9.337,-0.015,0.031,-0.024,22.8,-20.25,38.4,65.0
1786369099.9617932,-1.597,-2.442,9.402,-0.016,0.014,-0.022,23.55,-18.75,38.7,65.0
1786369099.9618187,-1.63,-2.502,9.38,-0.016,0.005,-0.021,24.0,-20.25,38.7,65.0
1786369100.1667435,-1.604,-2.452,9.34,-0.008,0.037,0.001,25.65,-20.1,37.8,70.0
1786369100.1667914,-1.738,-2.449,9.392,-0.011,0.018,-0.006,24.9,-19.2,40.05,70.0
1786369100.1668115,-1.683,-2.428,9.34,-0.019,0.007,-0.006,24.0,-19.5,37.95,70.0
1786369100.3716428,-1.551,-2.49,9.316,-0.017,0.022,-0.001,24.3,-18.75,37.95,55.0
1786369100.3716936,-1.714,-2.49,9.388,-0.014,0.02,-0.003,23.4,-18.15,37.5,55.0
1786369100.3717153,-1.693,-2.413,9.359,-0.013,0.005,-0.005,24.15,-18.45,38.55,55.0
1786369100.575978,-1.635,-2.495,9.361,-0.016,0.015,-0.004,23.85,-18.9,38.25,66.0
1786369100.5760496,-1.676,-2.444,9.369,-0.019,0.016,-0.004,25.05,-18.75,39.15,66.0
1786369100.5760815,-1.549,-2.444,9.4,-0.016,0.022,0.005,24.45,-18.15,39.0,66.0
1786369100.7811525,-1.669,-2.538,9.354,-0.018,0.017,-0.007,25.2,-17.7,38.55,66.0
1786369100.7812028,-1.717,-2.464,9.366,-0.012,0.013,-0.002,24.0,-18.75,38.4,66.0
1786369100.781224,-1.674,-2.519,9.342,-0.016,0.012,0.0,25.2,-18.45,38.55,66.0
1786369100.9862177,-1.683,-2.459,9.342,-0.009,0.016,-0.005,26.25,-17.85,38.7,71.0
1786369100.9862745,-1.717,-2.428,9.328,-0.011,0.014,-0.001,24.45,-19.2,39.0,71.0
1786369100.9862986,-1.662,-2.468,9.397,-0.012,0.016,-0.005,23.25,-18.75,39.45,71.0
1786369101.1911035,-1.638,-2.466,9.364,-0.007,0.022,-0.005,24.15,-17.7,38.55,28.0
1786369101.1911721,-1.709,-2.406,9.333,-0.011,0.02,-0.013,24.75,-17.55,39.9,65.0
1786369101.1912022,-1.633,-2.533,9.306,-0.005,0.021,-0.016,25.5,-17.55,39.45,65.0
1786369101.3953717,-1.709,-2.49,9.371,-0.014,0.013,-0.02,25.5,-17.1,39.15,73.0
1786369101.395454,-1.635,-2.516,9.369,-0.01,0.025,-0.023,24.9,-16.95,40.05,66.0
1786369101.3955185,-1.803,-2.473,9.292,-0.018,0.02,-0.024,25.95,-17.4,40.05,66.0
1786369101.6006467,-1.774,-2.447,9.39,-0.016,0.001,0.01,25.95,-15.75,38.55,25.0
1786369101.6007087,-1.714,-2.449,9.313,-0.018,0.013,0.018,25.05,-16.8,39.15,25.0
1786369101.6007297,-1.571,-2.523,9.385,-0.014,0.028,0.018,26.4,-15.75,39.6,25.0
1786369101.8052578,-1.712,-2.509,9.354,-0.029,0.015,-0.012,25.95,-16.95,40.8,61.0
1786369101.8053093,-1.721,-2.533,9.273,-0.026,0.025,-0.01,25.8,-18.3,39.9,61.0
1786369101.80533,-1.738,-2.545,9.373,-0.017,0.036,-0.021,27.3,-18.3,38.4,61.0
1786369102.0097952,-1.906,-2.313,9.189,-0.003,-0.006,0.014,27.15,-15.0,40.8,35.0
1786369102.009856,-1.729,-2.303,9.366,-0.013,0.005,0.029,27.15,-14.55,43.05,35.0
1786369102.009882,-1.829,-2.349,9.385,-0.012,0.01,0.004,27.3,-15.15,42.0,35.0
1786369102.215144,-1.733,-2.306,9.347,-0.032,-0.009,0.014,28.65,-15.0,41.55,30.0
1786369102.2151902,-1.863,-2.435,9.385,-0.043,-0.015,0.003,27.3,-13.2,40.95,30.0
1786369102.2152107,-1.87,-2.44,9.354,-0.049,-0.018,0.007,27.3,-15.15,41.25,30.0
1786369102.4197757,-1.82,-2.449,9.364,-0.026,-0.002,-0.021,26.55,-15.9,39.15,29.0
1786369102.4198256,-1.767,-2.452,9.369,-0.027,0.002,-0.021,26.25,-15.15,38.4,29.0
1786369102.4198472,-1.748,-2.461,9.361,-0.026,0.016,-0.011,25.65,-15.45,39.6,29.0
1786369102.6272907,-1.745,-2.447,9.369,-0.006,0.038,-0.003,26.55,-16.8,41.25,76.0
1786369102.6273656,-1.901,-2.397,9.347,-0.01,0.013,-0.004,27.75,-17.85,40.95,76.0
1786369102.627397,-1.836,-2.435,9.333,-0.013,0.004,-0.003,25.95,-15.45,40.8,76.0
1786369102.8285291,-1.774,-2.444,9.321,-0.012,0.023,0.004,24.9,-17.7,40.35,37.0
1786369103.0342088,-1.812,-2.375,9.34,-0.002,0.021,0.002,25.95,-16.2,41.1,28.0
1786369103.0342607,-1.841,-2.394,9.349,-0.008,0.015,-0.004,26.25,-16.35,42.0,28.0
1786369103.0342822,-1.894,-2.397,9.4,-0.009,0.011,0.002,27.45,-15.0,41.1,28.0
1786369103.24562,-1.791,-2.344,9.337,-0.015,0.004,-0.001,26.55,-15.6,41.25,36.0
1786369103.2456799,-1.779,-2.394,9.352,-0.02,0.005,0.001,24.9,-15.45,40.35,86.0
1786369103.2457085,-1.796,-2.392,9.333,-0.017,0.011,-0.001,25.8,-15.9,41.25,86.0
1786369103.4439285,-1.8,-2.442,9.33,-0.021,0.007,0.003,25.8,-15.6,40.65,27.0
1786369103.4439874,-1.908,-2.401,9.416,-0.02,0.018,0.008,28.05,-17.1,40.95,27.0
1786369103.4441702,-1.856,-2.265,9.333,-0.013,-0.001,-0.001,26.7,-15.45,39.3,37.0
1786369103.648051,-1.767,-2.38,9.4,-0.013,0.011,-0.009,25.2,-15.45,40.35,37.0
1786369103.648101,-1.733,-2.449,9.371,-0.006,0.016,-0.013,25.65,-16.2,41.1,37.0
1786369103.6481228,-1.848,-2.409,9.352,-0.011,0.007,-0.011,25.65,-17.4,40.8,28.0
1786369103.8530555,-1.822,-2.428,9.342,-0.011,0.019,-0.012,26.55,-16.8,42.0,30.0
1786369103.8531256,-1.848,-2.421,9.337,-0.012,0.019,-0.012,27.45,-15.75,41.1,30.0
1786369103.8531547,-1.808,-2.433,9.328,-0.014,0.021,-0.01,26.55,-17.1,41.7,84.0
1786369104.058308,-1.8,-2.291,9.345,-0.033,-0.014,0.013,27.15,-15.45,41.1,32.0
1786369104.0583868,-1.755,-2.428,9.428,-0.042,0.002,0.011,27.45,-16.5,41.85,32.0
1786369104.0584233,-1.875,-2.442,9.359,-0.027,-0.005,0.013,26.7,-14.55,41.1,31.0
1786369104.2624323,-1.695,-2.507,9.352,-0.006,0.007,-0.016,27.75,-14.85,41.25,38.0
1786369104.262518,-1.743,-2.461,9.361,-0.007,0.021,-0.014,24.9,-14.25,42.3,38.0
1786369104.2625434,-1.913,-2.373,9.311,-0.005,0.021,-0.014,28.5,-16.35,41.25,38.0
1786369104.4669092,-1.753,-2.478,9.323,-0.014,-0.051,0.005,25.5,-16.35,40.65,37.0
1786369104.466954,-1.489,-2.547,9.431,-0.024,-0.011,-0.003,25.95,-16.95,41.1,37.0
1786369104.6762862,-1.839,-2.342,9.313,-0.021,-0.008,-0.008,26.4,-16.95,40.05,30.0
1786369104.6763523,-1.834,-2.397,9.292,-0.02,-0.008,-0.005,26.4,-16.2,40.8,30.0
1786369104.6763859,-1.729,-2.538,9.419,-0.013,0.001,-0.015,25.5,-16.35,39.9,30.0
1786369104.8767996,-1.772,-2.361,9.301,0.003,0.028,0.002,25.95,-14.55,40.35,26.0
1786369104.8768673,-1.798,-2.33,9.33,-0.005,0.016,0.006,26.7,-14.55,40.35,26.0
1786369104.876903,-1.896,-2.325,9.33,-0.01,-0.003,0.01,27.0,-14.4,42.45,26.0
1786369105.081728,-1.767,-2.33,9.402,-0.01,-0.007,-0.001,27.75,-15.6,41.7,40.0
1786369105.081783,-1.753,-2.315,9.388,-0.009,0.005,-0.008,26.25,-14.85,42.75,40.0
1786369105.0818114,-1.705,-2.253,9.371,-0.014,0.019,-0.005,27.0,-15.6,42.0,40.0
1786369105.2891219,-1.844,-2.255,9.359,-0.026,-0.011,-0.006,26.25,-15.9,41.25,32.0
1786369105.4911227,-1.719,-2.349,9.325,-0.016,-0.011,0.023,26.7,-15.75,41.85,31.0
1786369105.4911675,-1.757,-2.236,9.383,-0.018,-0.006,0.024,26.25,-15.6,40.2,28.0
1786369105.4911907,-1.798,-2.325,9.352,-0.016,-0.019,0.016,25.8,-16.8,41.25,28.0
1786369105.69635,-1.726,-2.377,9.428,-0.024,0.012,-0.003,26.55,-15.15,42.45,29.0
1786369105.6964157,-1.681,-2.346,9.388,-0.019,0.007,-0.006,26.4,-15.75,40.05,30.0
1786369105.69645,-1.705,-2.258,9.371,-0.02,0.011,-0.009,26.25,-17.1,40.95,30.0
1786369105.9015307,-1.738,-2.354,9.294,-0.017,0.016,-0.011,25.05,-17.1,41.7,72.0
1786369105.9016204,-1.736,-2.33,9.299,-0.02,0.011,-0.007,25.5,-17.85,40.2,40.0
1786369105.901943,-1.81,-2.286,9.407,-0.016,0.007,-0.005,25.65,-16.95,38.55,40.0
1786369106.10625,-1.719,-2.315,9.421,-0.011,0.012,-0.003,23.55,-16.8,40.95,42.0
1786369106.1063278,-1.731,-2.301,9.373,-0.012,0.012,-0.001,25.65,-17.7,40.05,42.0
1786369106.1063635,-1.678,-2.363,9.402,-0.014,0.01,0.003,25.05,-16.8,40.65,38.0
1786369106.3104343,-1.743,-2.308,9.366,-0.013,0.01,-0.005,24.75,-16.8,40.65,29.0
1786369106.3105395,-1.671,-2.289,9.395,-0.015,0.016,-0.001,25.05,-15.9,41.25,29.0
1786369106.3105664,-1.705,-2.282,9.306,-0.016,0.01,-0.006,27.0,-15.15,39.9,41.0
1786369106.515602,-2.011,-2.306,9.402,-0.036,0.141,0.048,25.8,-15.15,42.45,31.0
1786369106.5156493,-2.045,-2.399,9.129,-0.01,0.1,-0.007,26.55,-15.15,43.5,31.0
1786369106.5156696,-2.069,-2.342,9.371,-0.021,0.057,0.007,26.55,-14.85,42.0,31.0
1786369106.7205873,-1.925,-2.279,9.335,-0.015,0.003,0.005,27.75,-15.9,43.2,27.0
1786369106.720658,-1.836,-2.356,9.392,-0.006,0.014,0.001,27.0,-14.85,42.75,27.0
1786369106.7206817,-1.848,-2.349,9.323,-0.006,0.013,-0.005,25.95,-16.2,42.3,27.0
1786369106.9249697,-1.946,-2.315,9.297,0.0,-0.14,0.003,25.8,-15.9,42.45,46.0
1786369106.9250402,-1.918,-2.488,9.706,-0.041,0.024,0.083,25.95,-15.75,41.85,46.0
1786369106.9250724,-1.592,-2.428,9.618,-0.013,-0.019,0.049,26.4,-15.0,41.55,46.0
1786369107.1306026,-1.872,-2.38,9.39,-0.024,0.036,0.035,25.95,-16.2,40.8,107.0
1786369107.1306574,-1.662,-2.203,9.342,-0.025,0.011,0.021,25.65,-15.45,40.05,107.0
1786369107.1306782,-1.822,-2.344,9.352,-0.03,0.023,0.022,25.5,-15.9,41.25,107.0
1786369107.3354623,-1.779,-2.284,9.352,-0.026,0.027,0.015,24.9,-16.2,41.85,30.0
1786369107.3355346,-1.86,-2.327,9.404,-0.024,0.034,0.012,24.9,-16.2,39.6,30.0
1786369107.335553,-1.899,-2.301,9.318,-0.023,0.007,0.013,27.0,-15.6,40.2,30.0
1786369107.5392437,-1.805,-2.354,9.39,-0.021,0.017,0.007,25.05,-16.35,39.15,35.0
1786369107.539294,-1.92,-2.327,9.359,-0.016,0.004,0.005,27.15,-15.75,41.55,35.0
1786369107.5393162,-1.779,-2.361,9.29,-0.027,-0.009,-0.003,24.75,-15.9,41.25,35.0
1786369107.744054,-1.856,-2.365,9.409,-0.02,-0.023,-0.014,26.4,-16.95,40.05,37.0
1786369107.7441268,-1.798,-2.368,9.34,-0.018,-0.024,-0.006,25.8,-14.85,40.95,37.0
1786369107.7441578,-1.614,-2.399,9.378,-0.013,0.006,0.011,24.9,-17.4,39.6,37.0
1786369107.94943,-1.808,-2.346,9.373,-0.016,0.014,-0.006,25.65,-15.75,40.8,38.0
1786369107.9495225,-1.729,-2.332,9.354,-0.014,0.005,-0.005,25.05,-15.6,41.25,38.0
1786369107.9495454,-1.702,-2.38,9.424,-0.013,0.016,-0.009,26.55,-15.6,39.9,38.0
1786369108.1541517,-1.817,-2.32,9.318,-0.022,0.004,-0.007,25.65,-16.95,40.05,29.0
1786369108.1542091,-1.683,-2.32,9.373,-0.029,0.002,-0.004,26.55,-15.15,39.9,26.0
1786369108.1542327,-1.688,-2.361,9.34,-0.023,0.018,-0.006,25.2,-17.4,39.3,26.0
1786369108.358662,-1.702,-2.373,9.335,-0.012,-0.008,0.014,26.4,-16.95,39.0,36.0
1786369108.3587327,-1.714,-2.394,9.354,-0.016,-0.002,0.017,25.5,-17.55,40.2,36.0
1786369108.358763,-1.755,-2.361,9.448,-0.014,-0.007,0.014,25.2,-17.4,39.0,36.0
1786369108.5635157,-1.733,-2.327,9.388,-0.018,0.0,-0.007,25.95,-17.4,39.0,84.0
1786369108.563571,-1.726,-2.349,9.354,-0.031,0.0,-0.005,24.9,-18.15,39.0,84.0
1786369108.563596,-1.781,-2.38,9.357,-0.032,-0.003,0.002,25.2,-16.2,39.6,84.0
1786369108.7685692,-1.618,-2.373,9.385,-0.029,0.004,-0.009,26.4,-17.7,39.6,29.0
1786369108.7686255,-1.724,-2.306,9.347,-0.022,0.01,0.001,24.0,-16.8,38.4,29.0
1786369108.7686486,-1.82,-2.267,9.378,-0.012,-0.004,0.01,24.3,-17.1,40.65,29.0
1786369108.9733725,-1.681,-2.418,9.369,-0.012,-0.036,-0.003,24.45,-18.9,39.0,31.0
1786369108.9734354,-1.559,-2.461,9.414,-0.014,-0.004,-0.003,24.75,-17.85,37.65,31.0
1786369108.9734628,-1.705,-2.433,9.397,-0.019,0.023,-0.003,24.15,-19.2,37.5,31.0
1786369109.177744,-1.686,-2.315,9.354,-0.031,-0.008,0.009,24.15,-18.45,39.3,69.0
1786369109.1778016,-1.508,-2.416,9.428,-0.03,0.025,-0.007,24.9,-18.9,39.6,69.0
1786369109.1778266,-1.501,-2.449,9.412,-0.03,0.045,-0.021,23.55,-19.8,38.4,69.0
1786369109.3890414,-1.556,-2.44,9.383,-0.02,-0.006,-0.003,25.65,-16.95,39.0,31.0
1786369109.3891015,-1.733,-2.33,9.357,-0.017,-0.011,-0.013,25.8,-18.75,38.4,31.0
1786369109.3891275,-1.714,-2.351,9.361,-0.013,-0.024,-0.009,25.05,-16.8,39.45,31.0
1786369109.5883236,-1.731,-2.363,9.38,-0.015,0.005,-0.01,24.75,-18.75,38.7,75.0
1786369109.5884025,-1.623,-2.387,9.373,-0.02,0.005,-0.012,24.0,-19.5,37.95,75.0
1786369109.588437,-1.647,-2.382,9.409,-0.018,0.005,-0.004,24.9,-19.2,38.25,75.0
1786369109.791053,-1.7,-2.215,9.426,0.001,0.025,0.015,24.45,-18.9,39.3,21.0
1786369109.791129,-1.836,-2.255,9.376,0.001,-0.018,0.023,25.05,-16.8,38.4,26.0
1786369109.9969249,-1.647,-2.399,9.366,-0.046,0.029,-0.007,24.9,-19.2,38.25,31.0
1786369109.9969761,-1.642,-2.377,9.359,-0.036,0.03,-0.009,24.45,-18.45,37.05,73.0
1786369109.9969974,-1.551,-2.416,9.385,-0.026,0.022,-0.011,25.2,-20.4,37.5,73.0
1786369110.2018733,-1.585,-2.456,9.4,-0.017,0.015,-0.003,26.4,-18.9,37.8,30.0
1786369110.2019343,-1.633,-2.356,9.383,-0.019,0.025,-0.004,23.55,-17.85,37.65,32.0
1786369110.2019618,-1.669,-2.416,9.419,-0.011,0.02,-0.005,25.05,-19.5,38.4,32.0
1786369110.4070544,-1.652,-2.502,9.376,-0.011,-0.003,0.005,24.75,-19.5,39.45,80.0
1786369110.407116,-1.616,-2.385,9.321,-0.017,0.034,0.016,24.75,-17.55,38.7,80.0
1786369110.4071417,-1.676,-2.428,9.421,-0.02,0.006,-0.015,23.85,-17.4,38.25,27.0
1786369110.6174688,-1.585,-2.373,9.347,-0.014,0.028,-0.005,24.15,-17.4,38.55,25.0
1786369110.617733,-1.652,-2.365,9.445,-0.018,0.03,0.0,23.85,-18.9,37.8,25.0
1786369110.617774,-1.721,-2.389,9.412,-0.028,-0.001,0.003,24.0,-18.3,39.15,34.0
1786369110.8171284,-1.571,-2.373,9.4,-0.013,0.029,-0.007,24.45,-17.4,40.05,30.0
1786369110.8171751,-1.788,-2.291,9.426,-0.007,0.019,-0.007,25.65,-17.7,37.8,30.0
1786369110.8171942,-1.772,-2.16,9.385,-0.014,-0.005,0.007,24.15,-18.15,39.0,32.0
1786369111.0209365,-1.645,-2.555,9.361,-0.024,0.001,-0.012,25.05,-18.75,37.95,31.0
1786369111.0210097,-1.549,-2.483,9.323,-0.028,0.005,-0.001,23.85,-17.4,39.3,31.0
1786369111.0210412,-1.52,-2.32,9.421,-0.027,0.021,-0.006,25.2,-19.2,37.05,31.0
1786369111.2259424,-1.607,-2.488,9.364,-0.023,0.02,-0.004,26.25,-19.8,36.6,84.0
1786369111.226036,-1.611,-2.356,9.436,-0.019,0.001,-0.016,23.85,-17.7,38.55,84.0
1786369111.2260864,-1.535,-2.32,9.436,-0.022,0.004,-0.021,24.9,-18.45,39.0,84.0
1786369111.4310722,-1.647,-2.514,9.357,-0.022,-0.003,0.024,24.75,-19.05,38.4,37.0
1786369111.431118,-1.597,-2.512,9.33,-0.032,-0.008,0.009,24.75,-19.5,37.95,37.0
1786369111.4311385,-1.504,-2.497,9.376,-0.028,0.001,-0.003,23.4,-18.15,37.8,37.0
1786369111.636083,-1.755,-2.43,9.385,-0.02,-0.009,-0.014,23.4,-17.7,36.75,79.0
1786369111.6361291,-1.607,-2.368,9.404,-0.031,-0.008,-0.011,24.15,-20.1,37.05,79.0
1786369111.6361494,-1.508,-2.461,9.39,-0.034,0.011,-0.026,23.1,-18.45,38.55,79.0
1786369111.8417413,-1.678,-2.217,9.436,-0.016,-0.02,0.013,25.05,-18.3,38.4,26.0
1786369111.8418274,-1.458,-2.306,9.416,0.007,-0.006,0.015,24.9,-17.4,38.55,26.0
1786369111.8418698,-1.595,-2.294,9.378,0.024,0.008,-0.007,25.5,-18.3,38.4,26.0
1786369112.0450568,-1.611,-2.286,9.433,-0.016,0.033,-0.003,24.9,-19.2,39.3,37.0
1786369112.045114,-1.542,-2.181,9.39,-0.016,0.038,0.001,24.75,-17.85,39.15,37.0
1786369112.0451365,-1.75,-2.33,9.397,-0.009,0.038,-0.001,24.75,-17.85,39.15,37.0
1786369112.2497332,-1.63,-2.677,9.294,0.002,0.07,-0.033,24.45,-18.15,39.0,28.0
1786369112.2497876,-1.812,-2.289,9.412,0.004,0.042,-0.023,24.9,-17.4,38.55,36.0
1786369112.2498102,-1.738,-2.035,9.124,0.005,-0.001,0.001,26.25,-18.3,39.15,36.0
1786369112.4544463,-1.616,-2.598,9.373,-0.008,0.019,-0.009,25.2,-20.1,37.8,28.0
1786369112.6593769,-1.614,-2.401,9.479,-0.041,-0.022,-0.003,24.9,-17.4,37.5,29.0
1786369112.6594527,-1.391,-2.49,9.416,-0.043,0.022,-0.01,24.0,-16.35,37.2,77.0
1786369112.6595197,-1.537,-2.605,9.44,-0.03,0.055,-0.013,24.45,-18.45,37.8,77.0
1786369112.8645744,-1.532,-2.298,9.45,-0.003,-0.01,-0.011,25.2,-17.7,38.25,28.0
1786369112.8646407,-1.774,-2.152,9.438,-0.015,-0.018,0.001,23.1,-18.9,38.55,27.0
1786369112.8646624,-1.714,-2.533,9.471,-0.031,-0.031,0.015,24.3,-19.05,37.95,27.0
1786369113.0745077,-1.75,-2.337,9.445,0.003,0.093,-0.038,25.2,-18.15,39.3,36.0
1786369113.0745623,-1.793,-2.272,9.256,-0.009,0.062,-0.008,24.3,-17.1,39.15,36.0
1786369113.0745826,-1.607,-2.354,9.383,-0.004,0.067,0.018,26.4,-16.2,38.55,36.0
1786369113.2737396,-1.568,-2.581,9.424,-0.042,-0.01,-0.02,25.5,-16.35,40.2,38.0
1786369113.2738004,-1.602,-2.459,9.366,-0.03,0.044,-0.018,26.7,-17.7,39.6,38.0
1786369113.2738256,-1.642,-2.535,9.426,-0.013,0.069,-0.004,26.7,-16.95,40.8,38.0
1786369113.4785721,-1.882,-2.351,9.371,-0.038,-0.057,-0.016,25.05,-17.1,39.9,32.0
1786369113.478635,-1.851,-2.44,9.352,-0.032,-0.085,-0.018,26.25,-17.55,39.15,32.0
1786369113.478657,-1.566,-2.526,9.426,-0.027,-0.068,-0.009,24.9,-17.4,38.25,32.0
1786369113.68564,-1.642,-2.363,9.354,-0.011,0.012,-0.007,26.25,-17.1,37.95,83.0
1786369113.6857233,-1.623,-2.33,9.366,-0.022,0.022,0.0,25.5,-18.3,38.4,83.0
1786369113.685756,-1.666,-2.188,9.273,-0.03,0.011,0.015,24.75,-18.3,36.6,83.0
1786369113.8884716,-1.745,-2.509,9.323,-0.044,0.053,0.021,24.75,-18.3,38.7,74.0
1786369113.8885744,-1.702,-2.444,9.333,-0.051,0.038,0.013,23.85,-18.9,38.55,74.0
1786369113.888601,-1.8,-2.447,9.323,-0.045,0.004,-0.017,23.4,-17.4,39.0,74.0
1786369114.0990202,-1.81,-2.435,9.342,-0.026,-0.019,0.006,25.95,-18.45,37.05,58.0
1786369114.0990708,-1.547,-2.387,9.407,-0.032,-0.029,0.021,24.75,-18.75,37.65,58.0
1786369114.2979062,-1.353,-2.784,9.469,-0.032,-0.011,-0.005,23.25,-19.8,36.15,65.0
1786369114.297959,-1.432,-2.49,9.421,-0.024,0.019,-0.015,22.8,-20.25,36.15,65.0
1786369114.2979798,-1.434,-2.466,9.404,-0.03,0.051,-0.013,22.65,-20.1,36.3,65.0
1786369114.5096169,-1.686,-2.638,9.392,-0.009,0.018,0.009,23.85,-20.1,38.25,64.0
1786369114.50968,-1.688,-2.665,9.328,-0.007,0.004,0.028,24.0,-19.5,37.95,64.0
1786369114.509716,-1.647,-2.476,9.409,-0.031,-0.002,0.031,23.55,-18.3,37.65,64.0
1786369114.70787,-1.599,-2.38,9.376,-0.013,0.005,-0.018,23.85,-18.9,36.3,33.0
1786369114.7079415,-1.391,-2.456,9.428,-0.015,0.041,-0.02,24.45,-18.15,37.5,33.0
1786369114.7079744,-1.683,-2.397,9.342,0.005,0.06,-0.03,24.9,-18.45,36.75,78.0
1786369114.9158168,-1.463,-2.478,9.304,-0.072,0.031,-0.006,23.1,-20.1,37.5,60.0
1786369114.9158618,-1.427,-2.705,9.414,-0.058,0.028,-0.013,22.35,-19.65,38.55,60.0
1786369114.91588,-1.616,-2.581,9.392,-0.068,0.015,-0.024,23.25,-20.55,36.9,71.0
1786369115.1191716,-1.518,-2.646,9.385,-0.019,0.012,0.024,22.65,-20.1,36.75,60.0
1786369115.1192222,-1.688,-2.492,9.416,-0.002,-0.005,0.001,20.85,-21.15,37.05,60.0
1786369115.1192446,-1.604,-2.492,9.33,0.009,-0.035,-0.007,23.85,-21.9,37.05,56.0
1786369115.327758,-1.444,-2.456,9.392,-0.052,0.0,0.018,22.5,-21.45,36.9,57.0
1786369115.3278217,-1.326,-2.531,9.383,-0.059,0.019,-0.007,21.9,-21.15,36.3,57.0
1786369115.327855,-1.391,-2.65,9.34,-0.034,0.038,0.009,21.75,-20.25,37.2,57.0
1786369115.526703,-1.353,-2.614,9.4,-0.023,0.056,0.013,21.6,-20.85,37.05,45.0
1786369115.526776,-1.441,-2.602,9.311,-0.026,0.032,0.006,20.4,-21.15,36.3,45.0
1786369115.5268068,-1.293,-3.053,9.385,-0.041,0.078,0.001,21.6,-20.1,36.3,45.0
1786369115.7317088,-1.784,-2.543,8.715,-0.136,0.005,0.057,21.75,-19.5,39.45,50.0
1786369115.7317595,-1.994,-2.456,9.323,-0.08,-0.076,0.278,21.9,-20.4,38.55,50.0
1786369115.7317815,-1.087,-2.31,9.294,-0.088,-0.136,0.046,21.0,-19.8,37.65,50.0
1786369115.9421217,-1.156,-3.44,9.313,-0.08,0.016,0.077,18.15,-22.35,35.25,39.0
1786369115.9422007,-1.544,-3.007,9.345,-0.02,0.015,0.054,19.5,-22.5,36.6,39.0
1786369115.9422328,-1.403,-3.151,9.421,-0.02,0.115,0.0,20.1,-22.35,35.25,39.0
1786369116.145361,-1.762,-2.763,9.414,0.004,0.126,-0.023,21.9,-20.4,37.5,42.0
1786369116.1454215,-2.219,-2.653,9.282,0.047,0.077,-0.028,22.5,-20.25,38.7,42.0
1786369116.145448,-1.956,-2.768,9.452,0.015,-0.014,0.011,20.25,-20.55,38.4,42.0
1786369116.3457186,-1.69,-3.06,8.815,-0.047,-0.208,0.037,18.6,-23.85,36.0,39.0
1786369116.3457623,-1.058,-3.472,9.421,-0.06,-0.131,0.046,18.9,-25.5,36.3,46.0
1786369116.3457808,-1.341,-3.235,9.213,-0.06,-0.06,0.055,17.4,-24.75,34.5,46.0
1786369116.5520573,-1.626,-2.203,9.29,0.131,-0.327,0.607,23.55,-21.0,36.15,44.0
1786369116.552108,-1.887,-3.191,9.026,0.061,-0.446,0.71,25.8,-20.55,38.7,37.0
1786369116.5521295,-1.25,-2.619,9.122,0.062,-0.513,0.868,25.05,-22.95,37.2,37.0
1786369116.7557082,-0.419,-1.36,9.091,0.367,0.118,-0.306,23.85,-26.55,40.05,26.0
1786369116.7557886,-1.089,-0.91,9.388,0.205,0.249,-0.378,23.4,-28.2,40.8,54.0
1786369116.7558224,-1.518,-1.075,9.234,0.016,0.239,-0.422,23.85,-25.8,41.85,54.0
1786369116.9602911,-3.036,-2.002,10.118,-0.159,-0.117,0.118,26.25,-22.5,36.6,31.0
1786369116.960365,-2.368,-1.563,9.067,-0.146,-0.304,-0.063,25.5,-23.7,35.4,58.0
1786369116.960395,-1.247,-1.623,9.431,-0.164,-0.334,-0.07,25.05,-24.45,33.6,58.0
1786369117.1653647,-1.283,-2.78,9.301,-0.043,-0.023,0.019,21.0,-29.1,32.1,34.0
1786369117.1654127,-0.855,-3.038,9.407,-0.056,0.038,0.038,20.4,-27.75,32.7,34.0
1786369117.1654334,-1.144,-2.83,9.438,-0.012,0.122,0.079,21.6,-28.95,31.95,36.0
1786369117.3699143,-1.358,-2.538,9.385,-0.022,-0.018,-0.034,21.0,-26.85,35.4,31.0
1786369117.3699865,-1.358,-2.538,9.251,-0.046,-0.022,-0.039,22.8,-27.9,34.35,31.0
1786369117.370018,-1.372,-2.717,9.5,-0.045,-0.018,-0.035,22.05,-28.35,33.3,28.0
1786369117.5757174,-0.958,-2.698,9.457,0.037,0.046,0.058,22.65,-27.0,32.7,28.0
1786369117.5757895,-1.595,-2.344,9.519,0.047,0.04,0.03,23.85,-27.0,33.0,28.0
1786369117.5760086,-1.817,-2.291,9.421,0.067,-0.05,0.012,21.75,-27.15,33.9,77.0
1786369117.784037,-1.389,-2.373,9.699,0.004,-0.018,-0.005,21.0,-29.1,33.6,75.0
1786369117.7840872,-0.917,-2.282,9.407,-0.021,0.005,-0.056,22.05,-29.85,32.85,75.0
1786369117.7841098,-1.085,-2.535,9.488,-0.037,0.066,-0.057,20.85,-28.5,33.75,33.0
1786369117.9843864,-1.001,-2.492,9.354,-0.025,0.029,0.001,23.1,-27.0,33.45,75.0
1786369117.984438,-1.077,-2.593,9.4,-0.013,0.059,0.003,22.8,-28.8,35.1,75.0
1786369117.9844599,-1.535,-2.397,9.51,-0.004,0.042,-0.005,22.8,-26.85,34.35,75.0
1786369118.1900406,-1.547,-2.365,9.378,0.003,-0.006,-0.006,23.25,-27.15,34.65,75.0
1786369118.1901143,-1.384,-2.377,9.481,0.005,-0.024,0.005,22.35,-27.75,32.7,81.0
1786369118.1901455,-1.386,-2.394,9.493,0.019,-0.047,0.008,22.5,-27.6,33.9,81.0
1786369118.394661,-1.288,-2.258,9.517,-0.072,-0.089,0.072,20.25,-28.8,34.65,79.0
1786369118.3947082,-1.348,-2.31,9.479,-0.078,-0.096,0.027,21.0,-29.1,34.65,79.0
1786369118.394731,-1.094,-2.464,9.469,-0.085,-0.078,0.011,20.25,-30.3,33.9,79.0
1786369118.6025484,-1.207,-2.413,9.39,-0.033,0.029,-0.02,20.25,-31.5,32.85,76.0
1786369118.6025887,-1.223,-2.44,9.452,-0.034,0.016,-0.015,20.25,-31.5,33.9,76.0
1786369118.6026049,-1.104,-2.514,9.474,-0.034,0.024,-0.013,19.35,-31.65,31.5,76.0
1786369118.803265,-1.365,-2.368,9.407,0.037,0.073,0.027,20.85,-30.15,33.75,77.0
1786369118.8033195,-1.432,-2.327,9.419,0.032,0.052,0.03,20.85,-29.25,34.5,77.0
1786369118.803343,-1.166,-2.272,9.402,0.029,0.04,0.017,22.5,-29.85,34.35,77.0
1786369119.0084236,-1.338,-2.43,9.452,0.002,0.006,-0.006,21.15,-28.95,34.5,34.0
1786369119.008547,-1.255,-2.263,9.395,-0.004,0.009,0.006,21.0,-29.1,34.35,30.0
1786369119.008584,-1.24,-2.447,9.517,0.004,0.023,0.0,20.55,-29.85,35.4,30.0
1786369119.2129567,-1.314,-2.406,9.445,0.001,0.024,-0.001,20.1,-29.25,34.95,30.0
1786369119.2130134,-1.29,-2.425,9.462,-0.005,0.021,-0.009,22.05,-28.35,36.15,30.0
1786369119.2130384,-1.276,-2.322,9.433,-0.001,0.024,-0.01,22.05,-28.8,35.4,30.0
1786369119.4200974,-1.329,-2.306,9.455,-0.004,-0.024,-0.006,21.0,-29.55,34.65,26.0
1786369119.4201474,-1.322,-2.385,9.802,-0.021,0.013,-0.034,21.6,-30.45,34.2,36.0
1786369119.4201703,-1.279,-2.306,9.483,0.0,-0.003,-0.003,21.9,-30.15,36.3,36.0
1786369119.6239424,-1.185,-2.267,9.579,0.01,0.007,-0.047,21.0,-29.85,36.6,76.0
1786369119.624015,-1.149,-2.219,9.424,0.001,0.031,-0.043,21.9,-29.7,35.55,76.0
1786369119.624047,-1.322,-2.301,9.565,-0.024,0.032,-0.052,20.4,-30.15,36.0,35.0
1786369119.8299046,-1.645,-2.899,9.091,0.21,-0.304,-0.154,17.25,-30.6,37.95,38.0
1786369119.8299596,-0.752,-2.727,9.175,0.433,-0.246,-0.024,18.0,-31.5,36.6,38.0
1786369119.8299818,-0.752,-2.804,9.694,0.544,-0.054,-0.075,18.3,-30.6,37.65,38.0
1786369120.0322163,-1.147,-1.836,9.404,0.857,-0.327,-0.074,23.4,-25.05,38.25,36.0
1786369120.0322776,-1.209,-1.154,9.807,0.692,-0.344,-0.102,25.95,-24.3,36.3,36.0
1786369120.032303,-0.642,-0.895,9.85,0.482,-0.246,-0.114,26.7,-21.9,37.05,36.0
1786369120.2374563,-1.008,-0.886,9.718,0.049,-0.056,-0.056,29.25,-24.45,36.9,36.0
1786369120.2375395,-0.982,-0.862,9.637,0.013,-0.045,-0.041,27.75,-22.95,35.85,36.0
1786369120.2375617,-0.721,-0.886,9.646,-0.032,-0.019,-0.009,28.2,-24.75,37.05,36.0
1786369120.4433548,-0.747,-0.939,9.641,-0.043,0.031,-0.001,27.3,-24.45,36.9,41.0
1786369120.4434123,-0.666,-0.931,9.651,-0.054,0.055,0.007,27.75,-24.45,36.15,41.0
1786369120.4434347,-0.883,-0.996,9.776,-0.055,0.044,0.007,27.3,-23.7,35.4,41.0
1786369120.6477299,-0.864,-0.96,9.601,-0.035,-0.042,-0.003,27.9,-25.5,37.05,41.0
1786369120.6477797,-0.737,-0.984,9.668,-0.036,-0.015,0.002,27.15,-24.75,36.3,41.0
1786369120.6478016,-0.723,-0.948,9.663,-0.041,0.017,0.009,27.45,-24.3,36.0,41.0
1786369120.8518498,-0.989,-0.95,9.73,-0.024,0.02,0.0,27.3,-24.45,36.6,44.0
1786369120.8518908,-0.907,-1.037,9.677,-0.025,0.013,0.007,26.25,-24.45,35.1,44.0
1786369120.8519087,-0.838,-1.001,9.687,-0.029,0.023,0.01,28.2,-23.55,35.55,44.0
1786369121.0574486,-0.788,-0.989,9.692,-0.062,0.066,-0.044,26.55,-25.65,36.6,47.0
1786369121.0575721,-0.915,-1.106,9.668,-0.052,0.032,-0.035,25.5,-24.9,36.6,47.0
1786369121.0576017,-0.845,-1.02,9.732,-0.033,0.042,0.011,26.7,-24.75,36.3,47.0
1786369121.2607613,-0.912,-1.07,9.708,-0.02,0.006,0.006,26.7,-24.75,36.0,51.0
1786369121.260817,-0.886,-1.044,9.673,-0.012,0.012,0.007,27.45,-24.3,34.95,51.0
1786369121.2608402,-0.891,-1.097,9.692,-0.013,0.018,0.008,26.25,-24.15,35.1,37.0
1786369121.4689538,-0.86,-1.118,9.685,-0.019,0.018,-0.01,25.2,-24.3,34.5,47.0
1786369121.4690266,-0.936,-1.104,9.706,-0.028,0.029,-0.013,25.65,-24.3,36.75,47.0
1786369121.469056,-0.953,-1.008,9.697,-0.039,0.029,-0.016,26.55,-24.45,36.6,49.0
1786369121.6696122,-0.546,-0.804,9.651,0.173,-0.132,-0.041,27.9,-23.55,37.05,42.0
1786369121.6696796,-0.934,-0.843,9.732,0.214,-0.125,-0.075,27.3,-25.2,36.6,42.0
1786369121.669704,-0.666,-1.247,10.082,0.225,-0.158,-0.083,27.9,-23.85,37.5,50.0
1786369121.875595,-0.328,-0.572,9.639,-0.069,0.038,-0.002,27.9,-25.05,35.55,50.0
1786369121.8759856,-0.529,-0.673,9.859,-0.053,0.046,-0.025,28.5,-24.15,35.85,50.0
1786369121.8760352,-0.646,-0.606,9.639,-0.054,0.054,-0.014,28.65,-25.05,33.75,59.0
1786369122.0827868,-0.709,-0.862,9.651,0.014,-0.085,0.088,28.2,-26.55,33.75,63.0
1786369122.0828443,-0.812,-0.675,9.711,-0.002,-0.024,-0.057,27.45,-25.05,34.95,63.0
1786369122.285361,-0.709,-0.637,9.402,0.178,-0.064,-0.035,29.7,-27.75,33.45,53.0
1786369122.2854128,-0.014,-0.776,9.948,0.226,-0.049,0.005,28.05,-25.65,34.65,53.0
1786369122.4897637,-0.321,0.433,9.436,0.255,-0.087,0.042,32.55,-25.65,36.6,50.0
1786369122.4898338,-0.215,0.053,9.85,0.312,-0.081,0.024,31.95,-25.8,36.75,50.0
1786369122.4898624,-0.194,0.201,9.673,0.304,-0.054,-0.004,31.8,-24.9,36.9,50.0
1786369122.695947,-0.294,0.105,9.855,-0.129,0.048,-0.009,31.35,-24.45,35.4,60.0
1786369122.6959965,-0.302,0.306,9.752,-0.092,0.052,-0.019,32.4,-24.75,37.8,60.0
1786369122.6960182,-0.388,0.23,9.601,-0.101,0.044,-0.005,34.2,-25.8,36.0,60.0
1786369122.8993003,-0.292,0.017,9.725,-0.073,0.045,-0.017,31.8,-25.65,34.65,47.0
1786369122.8993483,-0.431,0.034,9.72,-0.069,0.052,-0.009,32.55,-25.2,36.6,47.0
1786369122.8993683,-0.529,-0.062,9.723,-0.072,0.039,-0.01,32.85,-24.15,36.6,47.0
1786369123.104221,-0.52,-0.199,9.799,-0.097,0.027,-0.003,32.85,-23.7,35.85,47.0
1786369123.104266,-0.476,-0.223,9.73,-0.036,0.016,0.007,32.4,-23.1,34.95,63.0
1786369123.1042886,-0.376,-0.06,9.697,-0.035,0.018,0.001,32.55,-25.2,35.4,63.0
1786369123.3089952,-0.548,-0.101,9.761,-0.041,0.018,0.0,30.45,-25.05,34.5,58.0
1786369123.309068,-0.572,-0.227,9.718,-0.027,0.007,0.004,31.65,-21.9,34.5,67.0
1786369123.3091028,-0.409,-0.192,9.72,-0.029,0.01,0.005,32.7,-24.3,35.25,67.0
1786369123.5137358,-0.467,-0.199,9.747,-0.03,0.024,-0.001,31.65,-23.1,36.0,58.0
1786369123.5137877,-0.558,-0.189,9.699,-0.029,0.024,0.001,32.85,-24.15,33.9,62.0
1786369123.5138142,-0.479,-0.23,9.704,-0.022,0.014,-0.007,31.65,-23.85,34.95,62.0
1786369123.7190282,-0.536,-0.156,9.73,-0.019,0.025,0.001,32.1,-24.9,35.1,62.0
1786369123.7190936,-0.553,-0.201,9.752,-0.02,0.026,0.002,31.2,-24.3,34.95,64.0
1786369123.7191255,-0.496,-0.223,9.675,-0.028,0.018,0.004,31.35,-24.15,35.1,64.0
1786369123.9263434,-0.613,-0.223,9.72,-0.01,0.011,-0.012,32.4,-24.3,36.0,62.0
1786369123.9264297,-0.582,-0.196,9.732,-0.013,0.002,-0.003,31.2,-23.85,35.55,62.0
1786369123.926474,-0.467,-0.266,9.732,-0.02,0.01,0.004,32.1,-24.15,34.35,51.0
1786369124.128163,-0.393,-0.247,9.646,-0.018,0.009,-0.003,31.95,-21.9,35.55,58.0
1786369124.1282406,-0.464,-0.237,9.692,-0.017,0.023,-0.006,32.4,-23.1,35.55,58.0
1786369124.128274,-0.539,-0.204,9.711,-0.022,0.02,-0.005,33.45,-24.3,36.0,53.0
1786369124.3330622,-0.522,-0.184,9.756,-0.021,-0.006,0.001,32.55,-21.75,36.15,52.0
1786369124.3331223,-0.486,-0.225,9.68,-0.018,0.0,-0.005,32.85,-24.15,35.85,52.0
1786369124.3331525,-0.515,-0.297,9.653,-0.02,0.019,-0.005,32.4,-23.1,35.55,57.0
1786369124.5391157,-0.488,-0.259,9.735,-0.032,0.012,0.003,32.1,-22.95,35.1,63.0
1786369124.5392034,-0.606,-0.225,9.754,-0.018,0.01,-0.002,30.45,-23.55,34.5,63.0
1786369124.5395155,-0.532,-0.254,9.72,-0.02,0.009,-0.007,31.8,-23.25,36.15,63.0
1786369124.7437599,-0.587,-0.201,9.716,-0.017,0.002,0.001,30.45,-23.1,36.0,52.0
1786369124.7438757,-0.491,-0.273,9.713,-0.015,0.007,-0.001,31.35,-23.25,34.65,52.0
1786369124.7439065,-0.419,-0.239,9.711,-0.024,0.016,0.003,32.55,-23.7,35.1,52.0
1786369124.947254,-0.555,-0.227,9.72,-0.022,0.02,0.002,32.55,-22.5,35.4,52.0
1786369124.9473047,-0.529,-0.239,9.718,-0.019,0.027,0.001,32.55,-22.95,35.4,52.0
1786369124.9473274,-0.572,-0.275,9.704,-0.018,0.027,-0.006,33.3,-23.25,34.35,52.0
1786369125.1521964,-0.589,-0.244,9.749,-0.022,-0.009,0.001,32.1,-23.25,33.9,58.0
1786369125.1522481,-0.445,-0.249,9.725,-0.021,0.01,0.004,32.7,-23.1,36.3,58.0
1786369125.15227,-0.532,-0.225,9.744,-0.015,0.024,0.001,31.65,-22.8,36.0,58.0
1786369125.35721,-0.611,-0.285,9.73,-0.022,0.009,-0.003,31.95,-22.8,36.0,68.0
1786369125.357258,-0.529,-0.225,9.732,-0.014,0.014,-0.005,31.65,-23.55,36.0,68.0
1786369125.3572803,-0.543,-0.254,9.725,-0.015,0.018,-0.006,31.8,-22.95,36.15,68.0
1786369125.5615814,-0.63,-0.22,9.68,-0.017,-0.01,-0.001,33.15,-22.8,34.95,62.0
1786369125.5616198,-0.575,-0.256,9.735,-0.016,0.002,0.005,32.4,-22.8,35.25,62.0
1786369125.5616367,-0.539,-0.227,9.72,-0.017,0.019,0.005,32.4,-22.35,36.0,62.0
1786369125.7673273,-0.682,-0.239,9.687,-0.015,0.012,-0.004,32.4,-21.9,36.3,59.0
1786369125.767371,-0.634,-0.306,9.673,-0.016,0.007,0.003,32.85,-22.95,35.4,57.0
1786369125.7673898,-0.601,-0.249,9.756,-0.021,0.009,-0.002,33.45,-24.3,35.55,57.0
1786369125.9722626,-0.68,-0.297,9.749,-0.019,0.003,-0.001,32.4,-21.9,35.25,48.0
1786369125.972343,-0.639,-0.225,9.711,-0.014,-0.003,0.002,32.4,-23.55,35.25,56.0
1786369125.9723794,-0.546,-0.275,9.641,-0.02,0.015,0.001,31.95,-22.8,34.5,56.0
1786369126.176173,-0.575,-0.235,9.735,-0.024,0.007,0.002,32.55,-21.75,35.85,54.0
1786369126.1762416,-0.567,-0.283,9.728,-0.019,0.014,-0.005,34.2,-20.4,35.25,54.0
1786369126.1762722,-0.541,-0.285,9.665,-0.014,0.023,-0.008,32.4,-22.35,35.25,54.0
1786369126.381816,-0.555,-0.314,9.706,-0.016,-0.012,-0.001,31.05,-22.5,37.65,49.0
1786369126.381871,-0.539,-0.242,9.756,-0.022,0.007,0.002,33.3,-23.25,35.4,49.0
1786369126.3818946,-0.491,-0.247,9.687,-0.021,0.014,0.001,33.6,-22.2,36.6,49.0
1786369126.5858386,-0.634,-0.28,9.74,-0.023,0.005,-0.002,32.7,-21.15,36.3,56.0
1786369126.5858932,-0.637,-0.29,9.723,-0.022,0.003,-0.003,31.95,-23.55,35.25,56.0
1786369126.5859172,-0.611,-0.225,9.701,-0.021,0.0,-0.003,33.45,-23.1,34.5,56.0
1786369126.7943747,-0.608,-0.268,9.68,-0.03,0.01,-0.005,31.05,-21.75,35.85,70.0
1786369126.7944357,-0.608,-0.314,9.723,-0.021,0.015,-0.003,32.7,-22.35,34.95,70.0
1786369126.7944622,-0.632,-0.235,9.687,-0.022,0.016,-0.006,33.15,-21.15,36.3,70.0
1786369126.9955668,-0.646,-0.254,9.718,-0.016,0.001,-0.004,34.95,-22.8,34.95,49.0
1786369126.9956179,-0.532,-0.266,9.704,-0.016,0.009,0.001,33.9,-21.15,36.3,49.0
1786369126.9956396,-0.608,-0.271,9.752,-0.026,0.009,0.001,31.8,-22.2,36.6,49.0
1786369127.2037616,-0.632,-0.244,9.689,-0.02,0.007,0.002,34.2,-22.8,34.95,65.0
1786369127.2038236,-0.582,-0.285,9.682,-0.013,0.011,0.0,33.6,-22.5,35.1,65.0
1786369127.2038503,-0.646,-0.278,9.708,-0.021,0.007,0.004,32.1,-21.45,35.1,65.0
1786369127.4049995,-0.656,-0.254,9.675,-0.019,0.014,-0.007,32.7,-21.9,35.55,60.0
1786369127.4050634,-0.67,-0.28,9.778,-0.014,0.007,0.002,33.3,-22.2,35.4,60.0
1786369127.4050891,-0.589,-0.29,9.699,-0.02,0.01,-0.002,32.55,-22.2,35.85,60.0
1786369127.610368,-0.656,-0.213,9.771,-0.014,0.01,0.0,33.6,-22.2,35.4,62.0
1786369127.610428,-0.649,-0.29,9.687,-0.016,0.01,-0.002,34.05,-20.55,36.15,62.0
1786369127.6104555,-0.622,-0.278,9.668,-0.017,0.006,0.004,33.45,-22.8,36.3,62.0
1786369127.8204956,-0.656,-0.292,9.737,-0.017,0.013,-0.008,33.9,-22.35,35.25,68.0
1786369127.8205533,-0.716,-0.285,9.74,-0.017,0.009,-0.001,33.45,-20.85,36.3,50.0
1786369127.8205779,-0.634,-0.275,9.723,-0.014,0.004,0.002,33.6,-22.2,36.6,50.0
1786369128.0194066,-0.644,-0.225,9.725,-0.02,0.012,0.002,33.45,-22.8,37.05,56.0
1786369128.019454,-0.601,-0.283,9.768,-0.014,0.013,-0.001,33.15,-22.35,36.3,56.0
1786369128.0196257,-0.658,-0.194,9.744,-0.021,0.014,0.001,32.1,-21.0,36.6,52.0
1786369128.2245555,-0.682,-0.208,9.706,-0.018,0.003,0.002,34.35,-21.45,34.65,64.0
1786369128.2246387,-0.584,-0.28,9.756,-0.017,0.007,-0.004,34.05,-23.25,35.85,64.0
1786369128.2246683,-0.579,-0.223,9.718,-0.013,0.015,0.003,33.15,-20.85,35.55,61.0
1786369128.42943,-0.644,-0.213,9.663,-0.014,0.005,-0.002,32.85,-21.45,37.65,53.0
1786369128.429503,-0.627,-0.211,9.706,-0.016,-0.001,-0.004,33.3,-22.95,36.9,53.0
1786369128.4295242,-0.634,-0.304,9.699,-0.022,0.006,-0.004,31.35,-22.2,35.85,55.0
1786369128.6337738,-0.661,-0.256,9.701,-0.018,-0.004,0.007,32.55,-20.55,34.35,54.0
1786369128.6338186,-0.622,-0.242,9.711,-0.011,0.012,0.002,34.65,-22.8,36.3,54.0
1786369128.6338365,-0.601,-0.259,9.752,-0.018,0.018,-0.002,32.55,-21.75,36.15,54.0
1786369128.838676,-0.69,-0.247,9.728,-0.019,-0.002,0.007,32.7,-21.9,37.5,56.0
1786369128.8387418,-0.661,-0.254,9.699,-0.016,0.002,-0.003,33.3,-22.5,36.15,56.0
1786369128.8387702,-0.622,-0.239,9.723,-0.012,0.007,0.009,32.55,-22.2,35.85,56.0
1786369129.0432107,-0.668,-0.244,9.67,-0.021,0.015,-0.003,31.35,-21.0,35.85,62.0
1786369129.0432727,-0.67,-0.237,9.708,-0.015,0.015,-0.003,33.15,-22.35,36.75,62.0
1786369129.043299,-0.622,-0.237,9.653,-0.022,0.006,0.001,33.3,-22.5,36.9,62.0
1786369129.2480934,-0.649,-0.266,9.697,-0.019,0.009,0.001,32.55,-22.5,37.2,62.0
1786369129.248148,-0.599,-0.29,9.653,-0.017,0.015,-0.001,33.15,-21.15,35.4,62.0
1786369129.2481709,-0.642,-0.34,9.701,-0.015,0.014,-0.004,33.45,-21.6,36.75,62.0
1786369129.4535737,-0.596,-0.261,9.737,-0.016,0.009,0.0,32.85,-22.2,36.9,49.0
1786369129.4536574,-0.596,-0.211,9.656,-0.018,0.003,-0.004,32.85,-21.45,36.15,49.0
1786369129.4536855,-0.706,-0.199,9.677,-0.015,0.004,0.004,34.05,-21.45,36.15,49.0
1786369129.657713,-0.663,-0.218,9.701,-0.02,0.024,-0.003,33.45,-21.9,35.55,59.0
1786369129.657807,-0.673,-0.232,9.677,-0.015,0.011,-0.001,33.6,-21.75,36.9,59.0
1786369129.65784,-0.675,-0.22,9.706,-0.017,0.004,0.004,35.4,-21.9,37.5,59.0
1786369129.8626294,-0.567,-0.28,9.72,-0.018,0.01,0.002,33.15,-21.6,35.25,56.0
1786369129.8626704,-0.613,-0.201,9.704,-0.019,0.006,0.003,32.55,-22.5,36.15,47.0
1786369129.8626869,-0.563,-0.283,9.754,-0.018,0.011,-0.002,32.55,-21.45,36.9,47.0
1786369130.0683963,-0.551,-0.247,9.713,-0.018,0.023,-0.004,32.7,-22.35,37.5,65.0
1786369130.0684488,-0.668,-0.275,9.72,-0.011,0.022,-0.009,34.05,-21.75,35.4,55.0
1786369130.068471,-0.728,-0.263,9.682,-0.022,0.018,-0.003,33.3,-23.25,35.85,55.0
1786369130.2728229,-0.611,-0.328,9.723,-0.021,0.016,-0.009,33.3,-21.0,36.9,60.0
1786369130.2728918,-0.625,-0.247,9.675,-0.017,0.016,-0.007,32.55,-22.2,37.2,52.0
1786369130.272922,-0.654,-0.299,9.701,-0.017,0.015,0.001,32.85,-20.55,35.85,52.0
1786369130.4775355,-0.658,-0.249,9.68,-0.018,0.001,-0.002,32.55,-22.95,36.6,61.0
1786369130.4775863,-0.596,-0.237,9.704,-0.018,0.004,-0.007,34.8,-22.2,35.1,57.0
1786369130.4776077,-0.651,-0.273,9.713,-0.013,0.001,-0.004,33.15,-20.4,36.3,57.0
1786369130.6822948,-0.637,-0.271,9.685,-0.012,0.021,-0.001,31.05,-21.75,36.6,58.0
1786369130.682348,-0.721,-0.29,9.649,-0.013,0.01,0.004,33.3,-21.45,36.6,58.0
1786369130.682369,-0.651,-0.302,9.737,-0.02,0.004,0.0,33.15,-21.6,36.3,65.0
1786369130.8875968,-0.67,-0.292,9.685,-0.02,0.009,0.0,33.6,-21.75,35.1,61.0
1786369130.8877056,-0.682,-0.283,9.716,-0.022,0.006,-0.003,33.45,-21.6,36.3,61.0
1786369130.8877394,-0.601,-0.292,9.723,-0.02,0.01,-0.001,35.1,-22.2,35.85,70.0
1786369131.0913517,-0.658,-0.294,9.72,-0.017,0.019,-0.003,33.45,-21.15,35.55,57.0
1786369131.0914311,-0.721,-0.304,9.749,-0.014,0.021,-0.005,34.65,-20.4,35.55,57.0
1786369131.0914688,-0.68,-0.263,9.689,-0.016,0.016,0.001,34.05,-20.55,37.65,57.0
1786369131.296114,-0.709,-0.28,9.735,-0.013,0.011,-0.004,34.05,-22.5,37.2,70.0
1786369131.2961748,-0.654,-0.242,9.718,-0.008,0.007,-0.007,33.45,-21.9,37.05,70.0
1786369131.2962015,-0.692,-0.287,9.754,-0.015,0.018,0.001,35.85,-21.45,36.6,70.0
1786369131.5009239,-0.716,-0.247,9.687,-0.014,0.011,0.006,32.85,-21.75,37.2,59.0
1786369131.5010188,-0.637,-0.29,9.735,-0.015,0.01,0.004,34.65,-21.6,36.75,59.0
1786369131.5010517,-0.646,-0.275,9.723,-0.02,0.012,0.001,33.3,-20.25,36.6,59.0
1786369131.706883,-0.733,-0.261,9.713,-0.013,0.022,0.004,32.4,-21.6,37.05,59.0
1786369131.7069623,-0.666,-0.254,9.706,-0.018,0.01,-0.006,34.05,-21.0,36.15,59.0
1786369131.7069938,-0.699,-0.251,9.728,-0.016,0.007,-0.005,34.05,-21.45,37.2,59.0
1786369131.910516,-0.637,-0.237,9.694,-0.015,0.009,-0.002,34.2,-22.35,36.75,62.0
1786369131.9105587,-0.601,-0.263,9.749,-0.015,0.011,-0.002,33.6,-21.75,36.15,62.0
1786369131.9105773,-0.68,-0.28,9.675,-0.015,0.01,-0.004,33.3,-21.0,36.9,62.0
1786369132.1151514,-0.661,-0.29,9.689,-0.012,0.005,-0.003,33.9,-21.9,36.3,52.0
1786369132.115202,-0.587,-0.218,9.742,-0.018,0.012,0.0,34.05,-20.55,37.65,52.0
1786369132.1152241,-0.682,-0.259,9.704,-0.017,0.007,-0.002,32.7,-20.55,36.6,52.0
1786369132.3198607,-0.642,-0.256,9.737,-0.012,0.007,0.0,33.3,-22.5,36.9,59.0
1786369132.3198977,-0.68,-0.261,9.713,-0.016,0.005,0.001,34.35,-21.75,35.85,59.0
1786369132.3199143,-0.682,-0.211,9.694,-0.015,0.007,0.003,32.85,-21.75,37.2,59.0
1786369132.5247035,-0.627,-0.208,9.718,-0.014,0.028,-0.005,33.9,-23.1,37.5,57.0
1786369132.5247455,-0.663,-0.287,9.649,-0.016,0.009,-0.004,33.6,-21.0,35.1,53.0
1786369132.5247638,-0.639,-0.292,9.766,-0.018,0.007,-0.004,33.6,-21.75,35.4,53.0
1786369132.7295794,-0.63,-0.254,9.713,-0.018,0.019,-0.002,33.3,-22.2,37.65,52.0
1786369132.7296276,-0.694,-0.285,9.706,-0.018,0.021,0.002,33.3,-22.2,36.6,52.0
1786369132.729648,-0.656,-0.273,9.742,-0.018,0.014,-0.002,33.6,-22.2,35.85,68.0
1786369132.934445,-0.702,-0.242,9.711,-0.017,0.014,0.002,34.2,-21.9,37.8,61.0
1786369132.934504,-0.651,-0.294,9.701,-0.014,0.014,0.001,34.05,-21.45,37.2,61.0
1786369132.9345222,-0.668,-0.292,9.73,-0.012,0.016,0.002,32.4,-21.9,35.25,61.0
1786369133.1400445,-0.73,-0.242,9.754,-0.014,0.022,-0.004,33.9,-22.35,36.3,55.0
1786369133.1401253,-0.702,-0.232,9.689,-0.014,0.015,0.001,33.6,-21.0,37.2,55.0
1786369133.1401618,-0.651,-0.218,9.735,-0.02,0.012,0.0,33.15,-21.6,37.5,55.0
1786369133.3439517,-0.737,-0.292,9.735,-0.018,0.014,-0.001,32.7,-21.6,36.75,56.0
1786369133.3440235,-0.728,-0.223,9.692,-0.022,0.011,0.002,34.2,-21.9,35.55,56.0
1786369133.344049,-0.642,-0.285,9.72,-0.019,0.01,-0.003,34.8,-22.2,36.9,56.0
1786369133.5488725,-0.735,-0.251,9.692,-0.019,0.013,0.006,34.95,-21.9,37.8,56.0
1786369133.5489314,-0.656,-0.283,9.764,-0.018,0.015,-0.01,34.05,-21.45,37.2,56.0
1786369133.5489562,-0.704,-0.227,9.742,-0.016,0.014,-0.009,31.8,-20.55,75.0,56.0
1786369133.7550974,-0.673,-0.294,9.675,-0.021,0.014,-0.008,33.9,-20.85,36.3,53.0
1786369133.755167,-0.668,-0.283,9.783,-0.02,0.024,-0.005,34.05,-22.5,36.15,53.0
1786369133.7551942,-0.702,-0.292,9.694,-0.021,0.021,-0.007,33.6,-21.75,36.6,53.0
1786369133.9593804,-0.749,-0.29,9.708,-0.019,0.006,0.001,33.6,-22.5,36.9,58.0
1786369133.9594736,-0.692,-0.299,9.704,-0.021,0.015,-0.003,34.05,-19.8,36.6,58.0
1786369133.9595327,-0.757,-0.23,9.73,-0.015,0.011,-0.004,33.15,-20.4,37.5,58.0
1786369134.1643746,-0.725,-0.266,9.725,-0.016,0.007,0.0,33.45,-21.15,36.3,54.0
1786369134.1644251,-0.747,-0.318,9.749,-0.021,0.02,0.002,34.95,-20.1,37.05,54.0
1786369134.1644473,-0.699,-0.323,9.675,-0.02,0.018,-0.003,32.7,-20.1,37.5,54.0
1786369134.3686347,-0.757,-0.199,9.687,-0.013,-0.004,-0.002,35.55,-19.5,37.2,57.0
1786369134.3686848,-0.699,-0.261,9.74,-0.008,0.007,0.004,33.9,-19.65,36.75,68.0
1786369134.3687067,-0.757,-0.247,9.752,-0.011,0.011,0.001,34.05,-20.25,38.4,68.0
1786369134.5735178,-0.766,-0.225,9.747,-0.015,0.019,0.003,34.65,-20.4,37.05,68.0
1786369134.5735939,-0.692,-0.242,9.716,-0.013,0.021,-0.003,34.8,-22.2,38.4,56.0
1786369134.5736217,-0.716,-0.211,9.677,-0.014,0.018,-0.004,33.3,-19.8,36.9,56.0
1786369134.7775419,-0.749,-0.206,9.711,-0.011,-0.001,-0.003,34.05,-19.8,37.65,59.0
1786369134.7776053,-0.85,-0.302,9.704,-0.015,0.001,0.0,33.45,-21.15,38.55,59.0
1786369134.7776275,-0.766,-0.256,9.708,-0.009,0.0,0.004,35.1,-18.75,38.7,53.0
1786369134.9828506,-0.785,-0.206,9.728,-0.021,0.012,-0.001,33.6,-21.75,37.95,62.0
1786369134.9829013,-0.74,-0.232,9.694,-0.015,0.012,0.001,34.65,-20.4,37.8,62.0
1786369134.9829237,-0.769,-0.287,9.706,-0.02,0.015,-0.005,33.9,-20.4,36.75,55.0
1786369135.1874368,-0.785,-0.259,9.706,-0.012,0.009,-0.007,35.1,-19.5,37.2,58.0
1786369135.1875494,-0.759,-0.225,9.749,-0.011,0.007,0.001,33.6,-20.55,38.7,58.0
1786369135.1875794,-0.749,-0.244,9.711,-0.014,0.009,0.0,34.95,-20.1,36.75,72.0
1786369135.3926175,-0.754,-0.208,9.73,-0.018,0.008,-0.001,34.35,-20.55,37.95,63.0
1786369135.3926926,-0.795,-0.259,9.735,-0.021,-0.003,-0.003,33.15,-20.1,38.55,63.0
1786369135.3927248,-0.735,-0.261,9.701,-0.021,0.003,0.002,36.0,-20.1,37.8,61.0
1786369135.598964,-0.654,-0.237,9.701,-0.017,0.001,-0.003,33.3,-20.25,38.4,62.0
1786369135.5990112,-0.697,-0.268,9.718,-0.012,0.013,0.002,34.8,-19.5,37.2,62.0
1786369135.5990314,-0.725,-0.201,9.744,-0.012,0.009,0.004,33.6,-20.25,36.9,62.0
1786369135.8019953,-0.761,-0.242,9.68,-0.021,0.016,-0.005,34.2,-20.4,37.8,60.0
1786369135.8020427,-0.735,-0.232,9.759,-0.017,0.013,-0.005,34.35,-20.25,38.7,60.0
1786369136.0066166,-0.718,-0.227,9.682,-0.018,0.013,0.002,33.15,-22.8,38.55,63.0
1786369136.006697,-0.733,-0.194,9.699,-0.02,0.014,-0.003,33.6,-20.25,36.15,63.0
1786369136.0067344,-0.73,-0.278,9.761,-0.017,0.008,0.001,34.35,-20.25,37.2,63.0
1786369136.2112541,-0.711,-0.263,9.718,-0.016,0.022,-0.001,33.9,-21.6,37.8,53.0
1786369136.2113152,-0.766,-0.223,9.752,-0.025,0.02,-0.01,32.4,-20.4,38.25,53.0
1786369136.2113378,-0.867,-0.244,9.646,-0.02,0.022,-0.004,34.8,-20.25,37.65,53.0
1786369136.4165857,-0.783,-0.251,9.713,-0.013,0.006,0.0,33.6,-19.5,37.2,63.0
1786369136.4166543,-0.733,-0.251,9.68,-0.022,0.02,-0.004,33.45,-20.1,37.5,63.0
1786369136.4166753,-0.826,-0.239,9.701,-0.021,0.017,-0.005,34.65,-20.1,36.75,63.0
1786369136.6213076,-0.773,-0.225,9.754,-0.021,0.019,-0.005,35.85,-20.25,38.4,45.0
1786369136.621363,-0.788,-0.266,9.718,-0.017,0.007,-0.01,34.95,-20.85,38.25,58.0
1786369136.6213865,-0.74,-0.251,9.692,-0.02,0.0,-0.002,33.15,-20.4,37.5,58.0
1786369136.8256876,-0.735,-0.254,9.72,-0.019,0.013,-0.007,34.95,-18.15,37.05,58.0
1786369136.8257537,-0.752,-0.225,9.687,-0.016,0.015,-0.003,34.35,-19.8,36.6,58.0
1786369136.8257759,-0.752,-0.239,9.732,-0.02,0.01,-0.004,34.35,-21.0,38.7,61.0
1786369137.0304615,-0.792,-0.235,9.706,-0.022,0.018,-0.002,34.35,-19.8,36.9,65.0
1786369137.030523,-0.781,-0.283,9.72,-0.018,0.017,-0.003,34.2,-19.2,37.05,47.0
1786369137.0305421,-0.828,-0.309,9.723,-0.02,0.019,-0.003,34.8,-19.5,37.2,47.0
1786369137.2357686,-0.84,-0.249,9.692,-0.017,0.012,0.002,34.95,-18.9,37.05,48.0
1786369137.2358239,-0.821,-0.283,9.744,-0.02,0.011,0.004,34.05,-20.55,37.95,61.0
1786369137.235848,-0.73,-0.283,9.716,-0.021,0.01,0.003,35.7,-20.1,38.25,61.0
1786369137.440205,-0.776,-0.192,9.754,-0.021,0.012,-0.003,35.55,-19.8,37.95,53.0
1786369137.4402845,-0.778,-0.347,9.747,-0.019,0.008,-0.005,36.0,-20.4,37.5,53.0
1786369137.4403193,-0.785,-0.239,9.68,-0.021,0.016,-0.01,34.8,-19.8,36.15,63.0
1786369137.644744,-0.828,-0.273,9.744,-0.013,-0.001,0.003,35.55,-19.5,37.2,74.0
1786369137.6447985,-0.785,-0.314,9.704,-0.019,0.003,-0.001,35.4,-20.4,36.75,74.0
1786369137.6448221,-0.723,-0.235,9.689,-0.02,0.006,0.002,34.35,-20.25,36.9,58.0
1786369137.8498812,-0.709,-0.28,9.637,-0.012,0.011,0.001,34.95,-20.25,36.9,58.0
1786369137.849932,-0.867,-0.235,9.682,-0.014,0.01,0.001,34.8,-19.5,36.6,58.0
1786369137.8499527,-0.826,-0.256,9.756,-0.012,0.008,0.001,35.7,-19.65,36.6,58.0
1786369138.0549982,-0.783,-0.275,9.641,-0.016,0.029,-0.004,35.4,-20.1,37.8,73.0
1786369138.0550683,-0.807,-0.237,9.716,-0.012,0.007,-0.002,34.05,-19.8,38.4,73.0
1786369138.0550985,-0.871,-0.22,9.665,-0.012,0.002,0.001,36.6,-19.8,37.2,73.0
1786369138.259294,-0.867,-0.237,9.685,-0.009,0.013,-0.002,34.2,-18.9,37.5,66.0
1786369138.2593575,-0.807,-0.247,9.699,-0.012,0.01,-0.004,34.95,-20.4,39.0,66.0
1786369138.2595649,-0.824,-0.206,9.704,-0.007,0.013,-0.002,34.05,-17.85,38.4,66.0
1786369138.4639778,-0.8,-0.285,9.692,-0.015,0.015,-0.002,33.9,-20.1,37.5,56.0
1786369138.4640272,-0.838,-0.239,9.742,-0.014,0.013,-0.004,34.05,-18.75,38.4,56.0
1786369138.4640484,-0.84,-0.283,9.704,-0.016,0.012,-0.007,34.65,-20.4,40.05,56.0
1786369138.6711826,-0.816,-0.239,9.694,-0.012,0.016,0.001,34.35,-19.8,37.65,57.0
1786369138.671254,-0.833,-0.215,9.675,-0.013,0.008,0.002,35.4,-17.7,38.55,57.0
1786369138.6712835,-0.814,-0.208,9.673,-0.016,0.004,0.011,34.35,-19.5,37.95,57.0
1786369138.873704,-0.845,-0.223,9.716,-0.012,0.021,0.001,33.6,-20.25,38.4,50.0
1786369138.8737981,-0.79,-0.218,9.663,-0.019,0.012,0.004,34.05,-19.8,37.95,50.0
1786369138.8738334,-0.831,-0.251,9.706,-0.011,0.019,-0.005,34.65,-19.2,40.05,50.0
1786369139.0744545,-0.797,-0.249,9.752,-0.017,0.019,0.001,34.95,-19.65,38.25,50.0
1786369139.0859845,-0.79,-0.275,9.713,-0.019,0.017,-0.003,34.95,-20.85,38.55,50.0
1786369139.086066,-0.812,-0.275,9.74,-0.022,0.018,-0.001,35.4,-19.2,38.55,57.0
1786369139.279574,-0.862,-0.211,9.716,-0.014,0.016,-0.004,36.3,-20.25,39.15,55.0
1786369139.2846835,-0.893,-0.232,9.723,-0.012,0.022,-0.001,36.45,-20.1,39.6,55.0
1786369139.2847147,-0.879,-0.263,9.723,-0.022,0.02,-0.002,35.85,-20.25,39.45,59.0
1786369139.4891653,-0.891,-0.259,9.649,-0.02,0.009,-0.001,34.95,-20.4,37.8,66.0
1786369139.4892476,-0.903,-0.242,9.732,-0.015,0.011,0.0,34.8,-18.75,40.65,66.0
1786369139.489283,-0.912,-0.273,9.687,-0.021,0.011,-0.002,35.1,-20.55,39.15,63.0
1786369139.6937704,-0.917,-0.184,9.706,-0.019,0.009,-0.005,34.65,-19.65,38.55,61.0
1786369139.6938481,-0.871,-0.206,9.747,-0.024,0.017,-0.002,34.2,-18.45,39.3,61.0
1786369139.6938775,-0.886,-0.239,9.697,-0.028,0.018,-0.005,35.1,-17.55,38.7,61.0
1786369139.8991044,-0.893,-0.215,9.697,-0.016,0.013,-0.01,35.7,-18.9,39.3,62.0
1786369139.8991604,-0.833,-0.213,9.744,-0.018,0.009,-0.01,35.1,-17.85,38.4,62.0
1786369139.8991835,-0.881,-0.285,9.747,-0.02,0.014,-0.004,36.0,-18.9,37.5,62.0
1786369140.1043053,-0.917,-0.208,9.689,-0.012,0.002,-0.004,35.55,-17.55,37.65,57.0
1786369140.104381,-0.85,-0.263,9.677,-0.013,0.011,-0.013,37.05,-18.75,39.45,57.0
1786369140.10441,-0.912,-0.227,9.72,-0.017,0.02,0.011,35.55,-17.85,40.65,57.0
1786369140.3072002,-0.994,-0.223,9.704,-0.015,0.003,-0.003,36.75,-19.2,39.6,53.0
1786369140.307287,-0.9,-0.244,9.72,-0.024,-0.002,0.004,35.55,-17.85,39.9,53.0
1786369140.3073266,-0.857,-0.242,9.74,-0.022,0.0,0.0,35.55,-18.3,38.4,53.0
1786369140.5123599,-0.917,-0.271,9.713,-0.018,0.011,-0.005,35.85,-17.85,38.4,61.0
1786369140.512411,-0.936,-0.22,9.697,-0.013,0.013,-0.002,36.3,-18.3,39.45,61.0
1786369140.7178354,-0.836,-0.201,9.701,-0.013,0.005,0.003,34.05,-18.75,37.95,63.0
1786369140.7178967,-0.838,-0.215,9.632,-0.007,0.001,-0.001,36.3,-19.05,1.05,63.0
1786369140.717923,-0.919,-0.184,9.699,-0.011,0.0,0.0,36.6,-16.8,38.7,63.0
1786369140.9217722,-0.91,-0.208,9.699,-0.018,0.01,0.004,35.85,-18.3,37.95,57.0
1786369140.9218333,-0.917,-0.213,9.716,-0.015,0.004,-0.001,35.85,-19.05,39.15,55.0
1786369140.921859,-0.934,-0.232,9.685,-0.014,0.005,-0.001,36.3,-18.75,39.45,55.0
1786369141.1265688,-0.9,-0.223,9.677,-0.014,0.0,0.002,36.45,-16.95,39.3,48.0
1786369141.126638,-0.85,-0.23,9.699,-0.019,0.005,0.002,34.8,-19.8,39.15,59.0
1786369141.1266663,-0.864,-0.242,9.685,-0.013,0.012,-0.001,36.0,-19.65,38.25,59.0
1786369141.3313262,-0.934,-0.206,9.718,-0.013,0.014,-0.004,34.95,-18.15,37.8,59.0
1786369141.3313963,-0.891,-0.175,9.706,-0.016,0.003,0.003,35.1,-17.85,38.7,52.0
1786369141.331425,-0.905,-0.213,9.697,-0.019,0.007,-0.002,34.95,-18.9,40.8,52.0
1786369141.5359504,-0.886,-0.192,9.701,-0.018,0.014,-0.011,34.8,-19.05,39.45,51.0
1786369141.5360048,-0.888,-0.235,9.673,-0.016,0.01,0.001,36.3,-17.85,39.45,51.0
1786369141.5360286,-0.9,-0.168,9.73,-0.019,0.01,0.002,35.55,-18.3,38.4,51.0
1786369141.7409966,-0.91,-0.187,9.685,-0.019,0.012,-0.003,35.7,-17.7,38.55,63.0
1786369141.7410681,-0.869,-0.16,9.708,-0.016,0.007,-0.001,35.1,-18.3,39.45,63.0
1786369141.741099,-0.934,-0.218,9.699,-0.015,0.008,-0.004,36.3,-18.3,38.7,59.0
1786369141.9460247,-0.836,-0.242,9.749,-0.015,0.016,0.003,34.95,-18.9,39.3,48.0
1786369141.946074,-0.898,-0.165,9.665,-0.015,0.013,0.0,34.65,-18.15,40.8,48.0
1786369141.9460967,-0.927,-0.247,9.689,-0.02,0.007,-0.003,34.95,-18.45,39.0,55.0
1786369142.1510124,-0.864,-0.196,9.718,-0.013,0.009,-0.004,34.8,-18.75,38.7,53.0
1786369142.1510627,-0.869,-0.184,9.737,-0.02,0.013,0.002,35.1,-18.3,39.0,53.0
1786369142.1510842,-0.883,-0.199,9.754,-0.011,0.004,-0.003,35.1,-18.3,39.15,57.0
1786369142.3561754,-0.886,-0.249,9.742,-0.02,0.006,-0.007,35.1,-19.8,37.95,54.0
1786369142.3562481,-0.915,-0.211,9.72,-0.018,0.015,0.0,35.7,-20.4,38.55,54.0
1786369142.3562791,-0.857,-0.148,9.704,-0.015,0.014,0.003,35.4,-18.15,40.35,54.0
1786369142.5600903,-0.893,-0.189,9.735,-0.021,0.021,-0.01,35.55,-18.3,38.7,63.0
1786369142.5601575,-0.862,-0.256,9.73,-0.015,0.013,-0.004,35.85,-17.85,39.45,63.0
1786369142.5601838,-0.934,-0.206,9.732,-0.015,0.006,-0.001,36.3,-18.75,39.45,63.0
1786369142.7653475,-0.876,-0.206,9.708,-0.021,0.019,-0.007,35.55,-19.05,39.45,59.0
1786369142.7653947,-0.922,-0.213,9.747,-0.02,0.009,-0.005,36.6,-17.85,39.15,59.0
1786369142.7654147,-0.917,-0.196,9.685,-0.021,0.01,-0.007,37.05,-17.85,40.2,59.0
1786369142.9701376,-0.934,-0.273,9.752,-0.018,0.011,-0.002,36.3,-17.55,38.7,68.0
1786369142.970192,-0.891,-0.249,9.665,-0.014,0.012,-0.009,36.3,-19.8,39.15,68.0
1786369142.9702137,-0.84,-0.294,9.685,-0.021,0.011,-0.006,37.95,-18.15,39.6,68.0
1786369143.1750476,-0.927,-0.208,9.677,-0.018,0.012,-0.005,36.75,-17.4,39.3,61.0
1786369143.1751268,-0.903,-0.211,9.651,-0.019,0.012,0.001,35.55,-17.85,39.15,61.0
1786369143.1751597,-0.953,-0.17,9.689,-0.015,0.018,0.001,36.6,-18.3,39.45,61.0
1786369143.3792279,-0.915,-0.251,9.682,-0.016,0.01,0.001,36.0,-17.7,40.05,51.0
1786369143.379279,-0.977,-0.199,9.677,-0.014,0.005,-0.005,34.95,-17.4,39.0,51.0
1786369143.3792996,-1.008,-0.237,9.706,-0.015,0.003,0.002,36.75,-17.4,39.6,51.0
1786369143.5842657,-0.927,-0.275,9.737,-0.021,0.006,-0.002,36.75,-18.15,40.35,81.0
1786369143.584332,-0.946,-0.192,9.67,-0.014,0.009,0.002,36.45,-18.15,40.05,61.0
1786369143.5843625,-0.958,-0.227,9.682,-0.015,0.007,0.005,35.85,-18.3,40.2,61.0
1786369143.7895536,-0.907,-0.256,9.675,-0.015,0.004,0.005,36.6,-18.75,38.7,55.0
1786369143.789647,-0.924,-0.17,9.651,-0.013,0.001,-0.002,35.55,-18.3,40.2,55.0
1786369143.789682,-0.929,-0.235,9.706,-0.014,0.001,0.003,35.55,-19.05,41.7,55.0
1786369143.9936373,-0.898,-0.223,9.706,-0.017,0.007,0.002,34.95,-18.9,39.3,57.0
1786369143.9936976,-0.883,-0.242,9.663,-0.018,0.005,-0.009,34.95,-17.7,38.25,60.0
1786369143.9937236,-0.919,-0.187,9.673,-0.021,0.007,-0.005,35.4,-17.7,39.3,60.0
1786369144.204572,-0.958,-0.201,9.677,-0.019,0.016,-0.007,36.75,-17.7,40.35,60.0
1786369144.2046425,-0.922,-0.184,9.737,-0.014,0.012,0.002,35.4,-18.45,40.05,60.0
1786369144.2046704,-0.922,-0.225,9.701,-0.016,0.019,0.001,36.3,-17.85,39.45,61.0
1786369144.4039373,-0.883,-0.263,9.725,-0.012,0.006,-0.005,37.05,-17.85,40.2,61.0
1786369144.4039984,-0.903,-0.29,9.706,-0.011,0.011,-0.005,35.55,-18.75,37.95,61.0
1786369144.4040248,-0.929,-0.218,9.687,-0.015,0.006,0.0,36.6,-18.3,40.95,61.0
1786369144.6082394,-0.874,-0.218,9.728,-0.014,0.007,0.002,34.65,-18.9,40.05,61.0
1786369144.6083193,-0.905,-0.244,9.708,-0.02,0.004,-0.001,34.95,-18.15,39.6,52.0
1786369144.6083515,-0.86,-0.223,9.735,-0.015,-0.001,0.004,34.05,-17.1,38.7,52.0
1786369144.8133569,-0.876,-0.23,9.725,-0.02,0.013,-0.006,35.55,-19.8,39.15,56.0
1786369144.8134031,-0.891,-0.196,9.718,-0.019,0.02,-0.003,36.45,-18.9,38.55,56.0
1786369144.813423,-0.96,-0.259,9.699,-0.017,0.014,-0.004,35.85,-19.05,39.15,56.0
1786369145.0181599,-0.915,-0.199,9.708,-0.022,0.003,-0.002,35.55,-18.75,40.65,63.0
1786369145.0182078,-0.927,-0.273,9.72,-0.019,0.003,-0.005,36.75,-18.45,39.0,63.0
1786369145.0182252,-0.871,-0.187,9.697,-0.019,0.012,-0.002,34.2,-17.4,40.05,63.0
1786369145.2226768,-0.9,-0.244,9.687,-0.018,0.006,-0.006,36.45,-17.7,39.6,60.0
1786369145.2229595,-0.824,-0.23,9.668,-0.025,0.007,-0.001,35.7,-18.45,39.6,60.0
1786369145.222998,-0.876,-0.177,9.711,-0.015,0.016,-0.005,35.7,-20.1,39.6,60.0
1786369145.4279132,-0.84,-0.223,9.67,-0.018,0.004,-0.009,36.3,-17.85,40.2,67.0
1786369145.427982,-0.869,-0.225,9.699,-0.021,0.006,-0.005,36.3,-19.05,39.45,67.0
1786369145.428017,-0.891,-0.213,9.687,-0.017,0.013,-0.007,36.6,-19.05,39.9,67.0
1786369145.6328442,-0.883,-0.261,9.706,-0.019,0.011,-0.002,34.35,-19.8,38.7,68.0
1786369145.632892,-0.874,-0.261,9.694,-0.017,0.014,-0.007,36.0,-19.2,40.35,68.0
1786369145.6329114,-0.84,-0.232,9.685,-0.019,0.017,-0.014,34.95,-18.9,39.6,68.0
1786369145.8382497,-0.915,-0.239,9.725,-0.025,0.012,0.003,35.1,-18.75,40.2,50.0
1786369145.8383245,-0.936,-0.271,9.706,-0.023,0.013,-0.001,36.45,-18.15,38.55,50.0
1786369145.838358,-0.893,-0.278,9.646,-0.023,0.006,0.0,34.95,-16.95,40.05,61.0
1786369146.041843,-0.915,-0.251,9.668,-0.021,0.009,-0.003,36.3,-18.75,38.7,60.0
1786369146.0419004,-0.888,-0.318,9.682,-0.02,0.011,-0.003,36.45,-18.15,39.6,60.0
1786369146.0419304,-0.946,-0.215,9.675,-0.024,0.003,-0.002,36.6,-17.85,38.7,59.0
1786369146.246548,-0.939,-0.218,9.694,-0.016,0.013,-0.004,35.4,-17.7,39.0,64.0
1786369146.246591,-0.936,-0.297,9.658,-0.025,0.011,-0.01,36.0,-18.15,39.3,64.0
1786369146.2466135,-0.91,-0.271,9.699,-0.016,0.011,-0.006,35.85,-18.75,39.9,64.0
1786369146.451427,-0.943,-0.208,9.677,-0.022,0.018,-0.008,37.2,-18.9,38.55,54.0
1786369146.451572,-0.936,-0.251,9.682,-0.014,0.016,-0.006,37.05,-18.3,39.15,54.0
1786369146.4516158,-0.864,-0.247,9.618,-0.015,0.005,0.012,34.8,-17.55,38.4,54.0
1786369146.6563287,-0.934,-0.237,9.704,-0.015,0.011,0.002,37.05,-17.1,39.9,54.0
1786369146.6564312,-0.953,-0.237,9.677,-0.013,0.005,0.001,37.35,-19.05,40.2,54.0
1786369146.6565373,-0.934,-0.192,9.658,-0.013,0.004,0.009,36.3,-17.1,39.15,54.0
1786369146.8623013,-0.869,-0.199,9.673,-0.02,0.001,0.0,35.7,-16.95,39.0,62.0
1786369146.8623567,-0.876,-0.208,9.677,-0.016,-0.003,0.001,36.6,-16.35,40.65,62.0
1786369146.862387,-0.848,-0.204,9.651,-0.013,0.005,-0.002,35.85,-17.85,38.4,62.0
1786369147.0688767,-0.953,-0.266,9.629,-0.015,0.013,-0.009,36.3,-17.55,39.15,57.0
1786369147.0689583,-0.864,-0.268,9.759,-0.018,0.009,-0.003,34.95,-18.9,39.3,57.0
1786369147.2706332,-0.874,-0.23,9.665,-0.01,0.01,-0.005,34.95,-18.9,39.6,54.0
1786369147.270994,-0.989,-0.182,9.787,-0.019,0.015,-0.003,37.05,-17.55,39.45,54.0
1786369147.271032,-0.883,-0.23,9.689,-0.018,0.006,-0.011,35.7,-16.2,40.35,54.0
1786369147.4752135,-0.994,-0.192,9.704,-0.02,0.027,0.001,35.85,-17.1,38.7,58.0
1786369147.4752831,-1.046,-0.235,9.711,-0.024,0.015,0.003,35.7,-18.9,38.25,47.0
1786369147.4753144,-0.924,-0.28,9.646,-0.022,-0.006,0.003,37.2,-17.4,41.1,47.0
1786369147.680589,-0.996,-0.225,9.677,-0.021,-0.006,0.004,37.2,-17.7,39.3,54.0
1786369147.6806488,-0.929,-0.263,9.694,-0.018,-0.01,0.001,36.3,-19.5,41.25,58.0
1786369147.6806717,-0.785,-0.213,9.675,-0.019,-0.004,-0.001,36.0,-17.7,39.3,58.0
1786369147.8834386,-0.898,-0.172,9.685,-0.013,-0.015,-0.002,35.7,-17.7,40.05,64.0
1786369147.887527,-0.824,-0.201,9.718,-0.009,-0.012,0.002,36.45,-19.65,38.25,61.0
1786369147.8875895,-0.778,-0.175,9.723,-0.013,0.009,-0.003,35.55,-17.85,40.2,61.0
1786369148.0899794,-0.936,-0.204,9.651,-0.009,0.006,-0.017,37.05,-17.85,38.4,61.0
1786369148.0900586,-0.905,-0.211,9.618,-0.015,0.006,-0.01,36.3,-18.3,37.65,58.0
1786369148.0900867,-0.958,-0.235,9.735,-0.007,0.002,-0.015,35.7,-18.15,39.3,58.0
1786369148.294383,-0.891,-0.223,9.665,-0.02,0.007,-0.003,35.7,-18.15,39.3,68.0
1786369148.2944298,-0.86,-0.266,9.759,-0.023,0.018,-0.001,36.3,-18.75,39.45,68.0
1786369148.2944505,-0.912,-0.302,9.687,-0.011,0.017,-0.003,35.7,-16.95,39.6,55.0
1786369148.4992955,-0.86,-0.232,9.704,-0.02,0.006,-0.01,35.55,-19.5,38.7,52.0
1786369148.4993463,-0.91,-0.218,9.718,-0.011,0.01,-0.006,36.0,-18.45,39.6,52.0
1786369148.4993677,-0.9,-0.201,9.694,-0.018,0.018,-0.008,34.65,-18.45,40.05,59.0
1786369148.7047276,-0.922,-0.268,9.73,-0.012,0.005,0.003,35.1,-18.3,40.2,61.0
1786369148.7047894,-0.821,-0.242,9.704,-0.034,0.059,-0.007,36.0,-18.15,39.3,61.0
1786369148.7048154,-0.826,-0.369,9.73,-0.012,0.05,0.014,34.95,-17.7,39.6,69.0
1786369148.9093564,-0.871,-0.225,9.637,-0.022,0.003,-0.01,35.4,-18.15,39.3,53.0
1786369148.9094346,-0.962,-0.225,9.764,-0.018,0.01,-0.003,36.6,-17.55,40.2,53.0
1786369148.9094656,-0.879,-0.213,9.713,-0.018,0.003,-0.002,34.8,-18.3,39.15,53.0
1786369149.113698,-0.91,-0.196,9.591,-0.002,0.006,-0.006,36.0,-20.1,40.35,63.0
1786369149.113744,-0.883,-0.199,9.713,-0.004,0.004,-0.001,36.3,-17.1,39.9,63.0
1786369149.1137645,-0.998,-0.156,9.653,-0.003,-0.005,-0.004,36.0,-18.9,40.05,63.0
1786369149.3186693,-0.869,-0.235,9.694,-0.007,0.005,0.001,37.05,-18.75,39.9,54.0
1786369149.31872,-0.869,-0.175,9.716,-0.014,0.006,0.003,35.85,-17.1,39.9,54.0
1786369149.3187418,-0.879,-0.254,9.732,-0.016,0.013,-0.01,35.1,-17.85,40.65,54.0
1786369149.5232139,-0.927,-0.156,9.668,-0.012,0.005,-0.001,36.3,-17.55,39.9,65.0
1786369149.5232947,-0.821,-0.16,9.692,-0.021,0.002,-0.001,34.65,-20.1,40.05,65.0
1786369149.5233269,-0.888,-0.172,9.737,-0.017,0.009,0.001,36.45,-18.15,40.05,65.0
1786369149.7281213,-0.85,-0.192,9.689,-0.016,0.016,-0.002,34.65,-18.45,40.05,60.0
1786369149.7281735,-0.886,-0.146,9.675,-0.019,0.014,-0.002,34.95,-17.7,42.3,60.0
1786369149.7281945,-0.95,-0.211,9.74,-0.015,0.004,0.005,34.8,-17.55,41.25,60.0
1786369149.9329805,-0.917,-0.187,9.694,-0.019,0.009,-0.001,35.7,-19.2,42.6,62.0
1786369149.9330304,-0.9,-0.182,9.72,-0.021,0.016,-0.004,36.0,-18.15,41.85,62.0
1786369149.9330518,-0.965,-0.208,9.732,-0.016,0.007,-0.004,36.6,-18.3,40.65,62.0
1786369150.138209,-0.895,-0.16,9.735,-0.014,0.015,-0.006,35.4,-18.15,39.3,50.0
1786369150.1382794,-0.886,-0.194,9.73,-0.013,0.018,0.001,35.85,-18.75,40.65,50.0
1786369150.1383083,-0.898,-0.223,9.708,-0.017,0.014,0.001,37.05,-17.55,39.9,50.0
1786369150.3425572,-0.917,-0.18,9.697,-0.015,0.006,0.001,37.2,-17.4,40.35,67.0
1786369150.3426208,-0.905,-0.175,9.692,-0.016,0.004,-0.002,35.85,-16.8,40.65,58.0
1786369150.3426468,-0.852,-0.211,9.675,-0.025,0.007,0.005,36.3,-19.05,40.65,58.0
1786369150.5474153,-0.936,-0.127,9.697,-0.012,0.012,-0.003,37.2,-18.45,40.05,60.0
1786369150.5475175,-0.824,-0.199,9.61,-0.02,0.004,-0.002,35.55,-16.8,40.65,53.0
1786369150.5475488,-0.845,-0.175,9.682,-0.018,0.011,0.0,35.55,-17.1,39.9,53.0
1786369150.752693,-0.946,-0.201,9.699,-0.017,0.009,-0.001,35.4,-18.45,39.0,62.0
1786369150.7527547,-0.924,-0.124,9.699,-0.014,0.004,0.0,34.95,-18.45,41.1,62.0
1786369150.75278,-0.864,-0.189,9.663,-0.015,0.002,-0.001,35.4,-19.65,40.8,62.0
1786369150.9569762,-0.907,-0.168,9.718,-0.018,0.01,-0.003,36.3,-17.85,40.2,55.0
1786369150.957071,-0.931,-0.158,9.716,-0.014,0.014,-0.009,35.7,-18.15,40.35,55.0
1786369150.9571202,-0.864,-0.196,9.725,-0.017,0.014,-0.002,34.95,-19.2,39.0,55.0
1786369151.1617832,-0.891,-0.204,9.72,-0.013,0.008,0.01,35.4,-18.15,41.1,54.0
1786369151.1618338,-0.869,-0.213,9.706,-0.015,0.014,0.003,34.05,-19.05,39.9,54.0
1786369151.1618562,-0.962,-0.194,9.692,-0.02,0.023,-0.004,36.75,-17.4,40.8,54.0
1786369151.3664367,-0.831,-0.18,9.73,-0.019,0.02,-0.002,36.0,-17.7,40.8,50.0
1786369151.366526,-0.946,-0.177,9.704,-0.021,0.015,-0.012,35.1,-16.8,41.25,50.0
1786369151.3665493,-0.967,-0.189,9.663,-0.019,0.014,-0.008,37.5,-18.15,40.05,50.0
1786369151.571316,-0.953,-0.218,9.737,-0.019,0.016,0.002,35.85,-18.75,41.25,57.0
1786369151.571377,-0.986,-0.18,9.661,-0.017,0.011,-0.001,35.7,-16.95,40.8,57.0
1786369151.5714037,-0.915,-0.163,9.68,-0.02,0.009,-0.001,35.4,-18.45,40.8,57.0
