timestamp,ax,ay,az,gx,gy,gz,mx,my,mz,dist
1787135105.8665261,-8.741,1.568,4.07,0.017,0.057,-0.029,91.05,-40.65,-95.4,1511.0
1787135105.866541,-8.763,1.542,4.061,0.004,0.027,-0.012,91.05,-42.3,-96.15,1511.0
1787135105.8665473,-8.605,1.58,4.101,-0.119,0.129,0.031,91.35,-41.1,-96.9,1514.0
1787135105.8665547,-8.6,1.528,4.049,-0.119,0.137,0.054,90.9,-42.45,-97.5,1514.0
1787135105.8665602,-8.59,1.432,3.962,-0.124,0.13,0.067,92.7,-42.15,-96.75,1514.0
1787135105.8665657,-9.146,1.542,3.965,-0.202,0.163,-0.076,91.2,-41.7,-98.1,1521.0
1787135105.8665712,-9.254,1.518,4.094,-0.212,0.144,-0.078,91.65,-42.9,-99.3,1521.0
1787135105.86658,-9.218,1.547,4.142,-0.255,0.093,-0.087,92.4,-42.15,-98.85,1521.0
1787135105.866587,-9.012,1.109,3.297,-0.227,0.052,-0.076,91.65,-41.7,-100.8,1521.0
1787135105.866593,-8.825,0.97,3.227,-0.217,0.011,-0.051,91.35,-40.65,-100.5,1521.0
1787135105.8665984,-8.875,0.871,3.292,-0.18,0.002,-0.028,91.2,-40.95,-101.55,1521.0
1787135105.8666039,-9.153,0.795,3.335,0.034,-0.034,0.022,90.15,-42.15,-102.15,1522.0
1787135105.8666089,-9.064,0.924,3.546,0.035,-0.005,-0.02,90.9,-41.7,-101.1,1515.0
1787135105.866614,-9.05,0.967,3.488,0.047,-0.024,-0.015,90.3,-40.65,-102.45,1515.0
1787135105.866619,-8.76,1.099,3.946,-0.009,0.032,0.005,91.2,-42.15,-101.1,1503.0
1787135105.8666244,-8.945,1.099,3.792,-0.002,0.067,0.015,91.35,-40.65,-100.95,1499.0
1787135105.8666294,-9.026,1.087,3.778,0.004,0.055,0.006,89.85,-41.85,-101.7,1499.0
1787135105.8666341,-9.215,1.147,3.414,-0.014,0.043,0.004,90.45,-41.7,-101.85,1487.0
1787135105.8666396,-9.333,1.087,3.371,0.097,0.0,-0.002,90.15,-41.25,-102.15,1498.0
1787135105.866645,-9.369,1.161,3.479,0.102,-0.012,-0.013,91.2,-42.15,-100.8,1498.0
1787135105.8666503,-9.23,1.156,3.5,0.105,-0.016,-0.037,90.9,-40.5,-100.05,1506.0
1787135105.8666556,-8.926,1.247,3.642,0.079,-0.009,-0.078,91.35,-43.05,-99.15,1503.0
1787135105.8666604,-8.708,1.178,3.697,0.086,-0.021,-0.076,89.4,-42.15,-98.1,1503.0
1787135105.8666651,-8.758,1.128,3.821,0.074,-0.019,-0.051,88.65,-40.95,-100.05,1490.0
1787135105.8666704,-9.093,1.223,3.725,0.001,-0.049,-0.015,89.55,-42.3,-97.65,1488.0
1787135105.8666756,-8.959,1.19,4.075,-0.027,-0.087,0.011,90.45,-42.9,-100.35,1488.0
1787135105.8666809,-8.945,1.137,4.178,-0.073,-0.049,0.01,90.9,-42.15,-99.6,1484.0
1787135105.8666859,-9.594,0.979,3.024,-0.269,0.055,-0.016,89.25,-42.3,-101.7,1493.0
1787135105.866691,-9.558,0.898,2.928,-0.25,-0.02,-0.015,91.05,-42.3,-101.7,1493.0
1787135105.8666964,-9.45,0.895,2.899,-0.211,-0.035,-0.018,91.05,-41.1,-101.25,1493.0
1787135105.8667016,-8.923,0.816,4.075,-0.237,-0.031,0.03,90.6,-40.65,-102.45,1491.0
1787135105.8667066,-8.959,0.687,4.068,-0.306,0.048,0.044,87.45,-42.45,-102.9,1491.0
1787135105.8667128,-8.832,0.639,4.013,-0.314,0.097,0.028,89.4,-42.15,-103.65,1491.0
1787135105.866718,-9.459,0.4,3.685,-0.44,0.11,-0.14,89.7,-40.95,-106.65,1503.0
1787135105.8667228,-9.606,0.388,3.508,-0.443,0.238,-0.201,88.65,-40.2,-108.45,1503.0
1787135105.8667278,-9.766,0.338,3.311,-0.459,0.303,-0.254,88.65,-41.7,-107.4,1503.0
1787135105.866733,-9.012,-0.424,1.575,0.229,0.203,-0.248,84.0,-41.1,-114.6,1517.0
1787135105.8667383,-9.184,-0.366,1.834,0.289,0.032,-0.195,86.25,-41.85,-111.6,1517.0
1787135105.8667436,-9.206,-0.196,3.56,0.162,0.082,-0.043,84.15,-43.95,-109.2,1487.0
1787135105.8667483,-9.263,-0.144,3.642,0.109,0.081,-0.044,84.15,-45.6,-111.0,1487.0
1787135105.8667536,-9.196,-0.12,3.654,0.059,0.093,-0.032,84.3,-43.8,-109.05,1487.0
1787135105.866758,-9.603,-0.34,3.01,-0.034,0.071,-0.064,82.05,-44.25,-109.05,1484.0
1787135105.866763,-9.395,-0.4,2.787,-0.053,0.076,-0.06,83.7,-43.65,-108.45,1484.0
1787135105.866768,-9.369,-0.522,2.708,-0.052,0.027,-0.048,83.1,-42.9,-109.95,1484.0
1787135105.866773,-8.918,-0.692,2.31,0.154,0.22,0.086,84.15,-43.2,-108.9,1490.0
1787135105.866778,-9.148,-0.735,2.155,0.214,0.153,0.112,83.4,-44.4,-110.25,1482.0
1787135105.8667827,-9.012,0.034,2.121,0.626,0.576,0.046,84.45,-43.2,-104.4,1487.0
1787135105.8667877,-9.115,0.017,1.872,0.699,0.782,0.072,84.45,-43.2,-104.1,1433.0
1787135105.8667927,-10.017,-0.022,1.994,0.835,0.648,0.128,85.65,-43.2,-102.6,1433.0
1787135105.8667977,-9.505,1.652,2.725,1.296,-0.573,0.493,88.95,-42.15,-92.7,1387.0
1787135105.8668025,-9.347,1.635,3.091,1.25,-0.491,0.446,87.9,-43.2,-91.5,1400.0
1787135105.8668075,-9.048,1.875,3.179,1.153,-0.201,0.357,89.7,-42.15,-88.2,1400.0
1787135105.866813,-9.471,2.126,3.244,-0.2,0.262,-0.209,90.45,-41.7,-83.4,1403.0
1787135105.8668177,-9.462,1.978,2.784,-0.283,0.41,-0.253,89.55,-41.85,-84.3,1390.0
1787135105.866823,-9.673,1.556,2.289,-0.359,-0.175,-0.111,88.5,-41.85,-88.05,1392.0
1787135105.866829,-9.601,1.432,2.421,-0.393,-0.076,-0.15,87.9,-44.4,-87.15,1392.0
1787135105.8668337,-9.44,1.417,2.492,-0.39,0.079,-0.189,88.65,-42.45,-87.15,1387.0
1787135105.8668385,-9.567,0.632,1.535,-0.424,-0.033,-0.114,87.15,-44.85,-95.25,1368.0
1787135105.8668435,-9.409,0.613,1.525,-0.393,-0.016,-0.092,85.95,-43.65,-96.0,1368.0
1787135105.8668597,-9.582,0.601,1.686,-0.377,0.002,-0.105,85.65,-43.95,-95.55,1368.0
1787135105.8668728,-9.373,0.625,1.686,-0.409,0.13,-0.115,85.95,-45.15,-97.8,1368.0
1787135105.866878,-9.467,0.33,1.475,-0.413,0.29,-0.118,87.3,-43.5,-96.9,1384.0
1787135105.866883,-9.704,0.172,1.221,-0.353,0.319,-0.122,86.7,-43.65,-97.8,1384.0
1787135105.8668883,-9.625,0.299,1.882,0.005,0.036,0.021,86.25,-44.25,-100.5,1374.0
1787135105.866894,-9.701,0.357,1.935,-0.011,0.007,0.026,84.75,-44.25,-98.4,1390.0
1787135105.8668993,-9.706,0.417,1.98,-0.048,-0.012,0.021,84.9,-43.65,-99.6,1390.0
1787135105.9248662,-9.56,0.218,1.492,-0.036,0.052,-0.05,84.0,-43.5,-100.2,1390.0
1787135105.9248917,-9.553,0.196,1.568,0.003,0.049,-0.04,84.15,-44.85,-100.05,1390.0
1787135105.924904,-9.675,0.204,1.647,0.027,0.018,-0.021,84.3,-46.2,-100.2,1390.0
1787135106.1305077,-9.778,0.11,1.662,-0.026,0.031,0.072,84.9,-44.4,-99.3,1376.0
1787135106.1305335,-9.914,0.182,1.633,-0.03,-0.008,0.062,84.75,-45.75,-99.9,1376.0
1787135106.3335238,-9.555,0.17,1.611,-0.106,0.054,-0.04,85.2,-44.85,-98.1,1381.0
1787135106.3335495,-9.615,0.093,1.597,-0.107,0.039,-0.011,85.5,-45.3,-99.9,1381.0
1787135106.538476,-9.594,0.242,1.666,0.027,0.005,-0.035,84.9,-43.95,-101.85,1382.0
1787135106.5385022,-9.541,0.263,1.697,0.02,0.021,-0.034,86.7,-43.95,-99.3,1382.0
1787135106.5385137,-9.364,0.196,1.753,0.019,0.04,-0.024,84.75,-45.0,-99.9,1382.0
1787135106.7456956,-9.536,0.271,1.765,0.003,-0.001,0.151,85.8,-45.0,-100.5,1365.0
1787135106.7457218,-9.519,0.417,1.65,-0.005,0.014,0.144,86.55,-44.55,-99.9,1365.0
1787135106.745733,-9.785,0.445,1.721,-0.026,0.004,0.143,87.45,-45.15,-100.05,1365.0
1787135106.9489005,-9.821,0.553,1.448,-0.062,0.073,0.057,85.95,-43.95,-100.05,1365.0
1787135106.948925,-9.852,0.522,1.439,-0.047,0.04,0.051,87.15,-45.6,-101.55,1365.0
1787135107.1561627,-9.79,0.668,1.223,-0.042,0.067,0.069,86.55,-44.25,-101.25,1363.0
1787135107.156189,-9.718,0.716,1.195,-0.042,0.093,0.046,88.8,-43.05,-101.25,1363.0
1787135107.1562002,-9.787,0.709,1.252,-0.032,0.112,0.029,87.45,-42.9,-102.15,1360.0
1787135107.3543735,-9.658,0.543,1.401,-0.02,0.048,0.08,87.3,-42.6,-101.7,1343.0
1787135107.3586762,-9.646,0.627,1.398,-0.048,0.038,0.08,87.9,-44.4,-102.6,1343.0
1787135107.3587015,-9.685,0.551,1.362,-0.052,0.026,0.077,86.55,-43.5,-103.2,1343.0
1787135107.564178,-9.871,0.766,1.015,0.035,0.056,-0.017,87.15,-41.7,-101.85,1355.0
1787135107.7689173,-9.38,1.116,1.336,0.006,0.079,-0.053,87.15,-42.9,-101.55,1341.0
1787135107.768943,-9.383,1.027,1.398,0.018,0.111,-0.038,88.8,-44.55,-102.0,1341.0
1787135107.7689543,-9.438,0.96,1.487,0.022,0.099,-0.014,88.2,-43.95,-102.9,1341.0
1787135107.9724884,-10.113,0.618,1.231,-0.016,-0.061,0.051,88.65,-41.7,-101.55,1355.0
1787135107.9725153,-10.226,0.644,1.238,-0.023,-0.087,0.026,89.4,-43.2,-103.65,1355.0
1787135107.9725268,-10.183,0.747,1.264,-0.041,-0.098,0.004,87.45,-43.95,-101.1,1355.0
1787135108.179449,-9.838,0.702,0.9,-0.148,0.04,-0.078,88.05,-43.5,-103.2,1348.0
1787135108.3788407,-9.591,0.781,1.085,0.007,0.006,-0.032,85.95,-45.15,-104.1,1347.0
1787135108.3788738,-9.407,0.73,1.049,0.002,0.006,-0.008,87.9,-44.4,-102.15,1347.0
1787135108.3842745,-9.364,0.718,1.101,0.007,0.02,0.008,85.65,-43.95,-103.65,1347.0
1787135108.588187,-9.852,0.682,0.965,-0.006,0.062,0.039,87.3,-43.5,-103.95,1355.0
1787135108.588211,-9.816,0.778,0.962,-0.006,0.07,0.021,88.5,-42.6,-103.2,1342.0
1787135108.5882661,-9.776,0.673,0.855,0.008,0.072,0.03,87.0,-43.8,-103.5,1342.0
1787135108.7932158,-9.898,0.788,1.116,0.021,-0.034,0.048,89.7,-43.95,-102.15,1346.0
1787135108.7932425,-9.79,0.924,1.199,0.021,-0.05,0.061,88.2,-42.9,-103.35,1356.0
1787135108.793254,-9.823,0.941,1.204,0.002,-0.052,0.048,88.05,-43.8,-103.2,1356.0
1787135108.9972093,-9.546,0.852,1.142,-0.117,0.226,-0.069,87.15,-43.2,-104.4,1358.0
1787135109.001627,-9.725,0.716,0.979,-0.121,0.119,-0.044,89.4,-43.2,-103.35,1336.0
1787135109.2041206,-10.027,0.601,0.555,-0.124,-0.102,-0.004,89.7,-43.65,-104.1,1361.0
1787135109.2041461,-9.766,0.637,0.472,-0.151,-0.086,0.013,87.75,-43.5,-105.0,1347.0
1787135109.2041583,-9.787,0.826,0.419,-0.15,-0.03,0.009,88.5,-42.3,-106.5,1347.0
1787135109.4084437,-9.656,0.781,0.792,0.081,-0.004,-0.029,87.75,-41.85,-105.3,1356.0
1787135109.408469,-9.752,0.848,0.917,0.094,-0.014,-0.018,87.0,-42.3,-106.8,1356.0
1787135109.4084802,-9.895,0.936,0.989,0.103,-0.064,-0.014,87.9,-42.45,-104.85,1369.0
1787135109.617315,-9.579,0.661,1.336,0.015,-0.073,0.07,87.3,-41.55,-103.95,1380.0
1787135109.617341,-9.601,0.795,1.24,0.001,-0.078,0.073,88.2,-41.25,-103.65,1380.0
1787135109.6173527,-9.615,0.721,1.31,-0.018,-0.069,0.067,87.75,-43.8,-103.95,1381.0
1787135109.8160462,-9.831,0.625,1.226,-0.025,-0.041,0.009,89.25,-40.65,-103.5,1370.0
1787135109.8160715,-9.878,0.646,1.228,-0.018,-0.035,0.006,88.95,-41.7,-103.35,1370.0
1787135109.8160832,-9.799,0.692,1.211,-0.027,-0.011,0.005,87.45,-43.95,-104.85,1374.0
1787135110.0179148,-9.807,0.867,1.238,-0.046,0.03,-0.078,88.8,-43.5,-103.95,1356.0
1787135110.0179403,-9.749,0.828,1.216,-0.043,0.002,-0.077,87.15,-42.9,-103.65,1356.0
1787135110.0272062,-9.795,0.857,1.276,-0.04,-0.034,-0.058,87.75,-43.05,-104.55,1379.0
1787135110.225621,-9.795,0.637,1.616,-0.086,-0.095,-0.062,86.7,-42.15,-104.85,1392.0
1787135110.2256467,-9.821,0.682,1.528,-0.087,-0.088,-0.054,87.0,-42.6,-103.95,1392.0
1787135110.2256584,-9.89,0.702,1.571,-0.126,-0.103,-0.064,87.0,-45.3,-105.3,1392.0
1787135110.4342277,-9.625,0.443,1.882,-0.209,-0.053,-0.129,87.15,-43.2,-105.15,1396.0
1787135110.4342535,-9.675,0.457,1.812,-0.225,-0.037,-0.141,85.65,-42.9,-104.4,1396.0
1787135110.434265,-9.663,0.383,1.757,-0.243,-0.026,-0.153,85.05,-42.3,-105.75,1396.0
1787135110.6354644,-9.742,0.077,1.482,-0.255,0.01,-0.153,84.9,-42.9,-109.2,1389.0
1787135110.63549,-9.653,0.01,1.42,-0.239,-0.043,-0.143,85.5,-42.3,-107.85,1389.0
1787135110.6355016,-9.62,-0.06,1.444,-0.216,-0.067,-0.125,85.05,-45.0,-108.6,1389.0
1787135110.8411465,-9.416,-0.206,1.657,-0.056,0.005,-0.082,85.65,-43.2,-109.2,1403.0
1787135110.8411765,-9.534,-0.187,1.566,-0.04,0.023,-0.072,85.8,-43.05,-109.8,1403.0
1787135111.0434542,-9.795,-0.294,1.784,-0.042,0.022,-0.078,85.5,-42.6,-109.35,1411.0
1787135111.0434809,-9.618,-0.457,1.798,-0.03,0.014,-0.085,82.8,-43.5,-110.1,1411.0
1787135111.250484,-9.962,-0.704,1.516,0.084,-0.063,-0.022,83.25,-44.25,-107.85,1408.0
1787135111.25051,-10.218,-0.778,1.448,0.118,-0.111,-0.03,83.1,-43.65,-108.45,1403.0
1787135111.2505221,-10.092,-0.924,1.113,0.179,-0.125,-0.059,84.0,-44.55,-109.05,1403.0
1787135111.4541655,-10.305,-0.934,-2.55,1.669,0.326,-0.183,85.5,-44.25,-101.25,1401.0
1787135111.4541914,-11.128,-0.654,-3.084,2.235,0.211,-0.251,87.15,-43.65,-99.6,1387.0
1787135111.454203,-11.732,-0.517,-2.914,2.632,-0.24,-0.263,86.25,-42.3,-94.35,1387.0
1787135111.6578283,-7.937,4.413,2.5,3.997,-0.679,-0.253,80.55,-33.45,-60.75,1434.0
1787135111.65786,-8.009,4.657,3.33,3.878,-0.521,-0.212,79.8,-31.5,-56.85,1434.0
1787135111.8639374,-9.309,3.201,3.692,-0.651,0.296,-0.228,78.15,-15.45,-46.35,297.0
1787135111.863963,-9.677,3.156,3.467,-0.779,0.015,-0.131,78.3,-14.85,-45.0,297.0
1787135111.8639743,-9.706,3.189,3.627,-0.944,-0.25,-0.074,77.4,-17.4,-44.85,297.0
1787135112.0693789,-9.673,3.223,4.417,-3.259,0.154,-0.096,74.85,-32.85,-57.0,598.0
1787135112.0694046,-9.924,2.94,4.041,-3.353,-0.046,-0.08,75.0,-34.95,-59.7,598.0
1787135112.0694163,-9.814,2.832,3.761,-3.4,-0.263,-0.055,74.85,-38.25,-63.6,598.0
1787135112.2715497,-8.171,0.476,-0.651,-3.609,-0.333,0.11,75.9,-45.15,-92.25,1411.0
1787135112.2715747,-8.677,-0.153,-1.396,-3.287,0.096,0.119,76.95,-45.0,-94.35,1411.0
1787135112.271587,-8.904,-0.85,-2.14,-2.967,0.233,0.162,77.1,-43.95,-99.6,1411.0
1787135112.4760897,-9.708,-3.445,-1.595,-0.532,0.211,0.232,80.1,-37.5,-117.75,1460.0
1787135112.476114,-9.993,-3.254,-1.314,-0.381,0.07,0.255,80.4,-37.05,-117.0,1460.0
1787135112.4782846,-9.931,-3.359,-0.771,-0.243,-0.031,0.243,80.85,-36.6,-118.05,1460.0
1787135112.6823337,-9.637,-2.646,1.197,0.17,0.234,-0.028,81.15,-38.25,-115.05,1459.0
1787135112.6823595,-9.613,-2.629,1.099,0.203,0.251,-0.035,81.3,-38.4,-116.4,1459.0
1787135112.6823711,-9.855,-2.595,1.12,0.269,0.175,-0.032,81.0,-38.4,-115.65,1459.0
1787135112.887188,-9.902,-2.073,1.14,0.495,-0.032,-0.018,78.3,-40.35,-113.4,1428.0
1787135112.8872142,-9.68,-1.992,1.183,0.523,-0.066,-0.012,79.65,-40.5,-113.25,1428.0
1787135113.0933745,-9.608,-1.86,1.087,0.988,-0.056,0.044,79.65,-43.65,-105.6,1397.0
1787135113.0933988,-9.531,-1.508,0.941,1.032,-0.069,0.055,79.5,-44.25,-103.5,1397.0
1787135113.0934105,-9.282,-1.539,0.675,1.052,-0.021,0.052,80.4,-43.95,-102.15,1397.0
1787135113.2957575,-8.76,-0.294,-0.091,1.978,-0.38,0.153,81.6,-45.15,-88.65,1397.0
1787135113.502419,-10.211,2.679,7.29,-0.273,0.288,-0.413,77.25,-31.05,-56.1,1481.0
1787135113.7065008,-9.754,1.381,3.864,-2.416,0.027,-0.392,76.2,-41.1,-68.25,1481.0
1787135113.9130018,-8.911,-1.173,-0.919,-2.227,-0.208,0.151,73.95,-43.5,-99.45,1408.0
1787135113.9130275,-8.863,-1.82,-1.281,-2.006,-0.26,0.25,76.95,-44.25,-101.7,1408.0
1787135113.9130392,-8.909,-2.176,-1.487,-1.711,-0.246,0.315,77.85,-43.65,-102.6,1385.0
1787135114.1170487,-9.778,-2.899,-0.077,-0.387,0.161,0.155,79.65,-39.0,-112.5,1409.0
1787135114.1170762,-9.984,-2.935,0.089,-0.314,0.14,0.12,79.5,-39.6,-112.35,1409.0
1787135114.1170878,-9.943,-3.038,0.235,-0.249,0.047,0.102,78.9,-40.2,-111.45,1431.0
1787135114.3240564,-10.029,-2.471,1.496,0.068,-0.049,-0.031,79.65,-39.75,-112.95,1428.0
1787135114.3240817,-9.673,-2.344,1.506,0.069,-0.067,-0.031,78.3,-40.65,-112.35,1428.0
1787135114.3240929,-9.347,-2.325,1.434,0.082,0.034,-0.054,77.55,-39.6,-112.65,1428.0
1787135114.523454,-9.596,-2.155,1.154,0.255,0.063,-0.027,78.75,-42.3,-111.6,1413.0
1787135114.5234787,-9.814,-2.061,1.243,0.293,-0.054,-0.004,77.85,-43.2,-110.25,1413.0
1787135114.731436,-9.641,-2.593,-1.432,1.09,-0.017,0.1,78.6,-43.65,-107.4,1403.0
1787135114.7314634,-9.306,-2.389,-1.602,1.306,-0.195,0.162,79.5,-42.6,-107.25,1403.0
1787135114.731475,-9.524,-2.495,-1.448,1.612,-0.401,0.211,80.4,-44.4,-103.65,1403.0
1787135114.9345665,-10.829,0.991,0.022,2.858,0.292,-0.03,80.1,-42.15,-79.35,1429.0
1787135114.9345915,-10.913,1.8,0.148,3.089,0.127,-0.068,79.05,-41.85,-74.85,1429.0
1787135114.934603,-9.474,1.877,0.22,3.282,0.073,-0.157,78.9,-40.5,-71.7,1429.0
1787135115.141487,-9.246,3.737,7.058,0.668,0.147,-0.104,78.3,-17.1,-47.25,288.0
1787135115.141512,-9.414,3.268,6.735,0.256,0.096,-0.075,76.2,-17.85,-46.05,288.0
1787135115.141523,-9.467,3.278,6.574,-0.085,-0.046,-0.033,77.85,-17.7,-46.35,288.0
1787135115.3417618,-9.404,3.768,4.879,-3.149,0.075,-0.006,77.4,-28.5,-53.25,305.0
1787135115.345278,-8.856,3.249,3.862,-3.715,0.194,-0.107,76.65,-34.35,-59.85,305.0
1787135115.550653,-9.081,0.625,-0.381,-3.887,-0.105,0.153,77.85,-45.6,-90.15,1470.0
1787135115.550678,-9.735,0.05,-0.742,-3.762,-0.196,0.204,75.9,-44.85,-92.7,1408.0
1787135115.7534583,-9.651,-3.251,-1.729,-0.418,-0.206,0.21,82.35,-37.8,-116.25,1435.0
1787135115.7534845,-9.467,-3.215,-1.432,-0.194,-0.107,0.21,82.5,-38.85,-117.15,1480.0
1787135115.960136,-9.89,-2.164,1.726,0.306,-0.126,0.015,83.1,-39.3,-113.7,1479.0
1787135115.9601614,-9.5,-2.255,1.736,0.294,-0.029,-0.015,83.1,-41.25,-112.95,1449.0
1787135115.9601738,-9.347,-2.365,1.674,0.375,0.138,-0.034,80.55,-39.6,-112.65,1449.0
1787135116.163905,-9.495,-1.391,-0.225,1.509,-0.193,-0.016,81.75,-43.5,-106.05,1426.0
1787135116.1639311,-9.776,-1.171,-0.067,1.728,-0.189,0.004,82.65,-43.95,-102.6,1390.0
1787135116.1639426,-10.223,-0.876,0.18,1.989,-0.38,0.029,82.8,-45.75,-100.95,1390.0
1787135116.371109,-9.486,1.243,1.956,2.642,-0.428,-0.363,79.5,-44.25,-79.65,1424.0
1787135116.371135,-9.675,1.528,2.33,2.76,-0.473,-0.385,78.9,-42.9,-74.55,1424.0
1787135116.3711462,-8.969,1.757,2.54,2.847,-0.605,-0.437,78.75,-41.55,-71.1,1528.0
1787135116.5732944,-7.91,3.182,6.936,1.59,0.239,-0.607,74.25,-28.35,-51.3,1528.0
1787135116.778849,-9.895,2.258,5.272,-2.117,-0.299,0.217,73.5,-33.45,-56.85,1528.0
1787135116.7788875,-9.785,1.858,5.236,-2.221,-0.411,0.197,74.4,-36.3,-59.85,1528.0
1787135116.7788987,-9.361,1.776,5.255,-2.355,-0.544,0.231,73.2,-37.95,-61.95,1528.0
1787135116.9834704,-6.153,0.199,2.485,-2.91,0.714,0.431,73.65,-46.35,-87.9,1471.0
1787135116.9834955,-6.943,0.309,2.303,-2.939,0.873,0.558,75.75,-46.2,-91.8,1471.0
1787135117.1866498,-10.439,-2.43,-1.882,-0.701,-0.046,0.365,82.8,-38.85,-115.65,1441.0
1787135117.1866755,-10.429,-2.629,-1.432,-0.436,-0.06,0.328,84.3,-39.9,-115.35,1441.0
1787135117.1883833,-10.276,-2.684,-0.91,-0.209,-0.089,0.29,83.7,-37.05,-115.5,1441.0
1787135117.393747,-9.79,-2.21,1.896,0.141,-0.009,-0.037,84.0,-40.65,-114.15,1457.0
1787135117.393773,-9.833,-2.205,1.889,0.143,0.043,-0.057,83.4,-39.3,-113.25,1457.0
1787135117.3937795,-10.108,-2.033,1.666,0.168,0.066,-0.081,84.45,-39.3,-114.75,1457.0
1787135117.5981028,-9.44,-1.937,-0.354,1.038,-0.14,-0.165,84.0,-43.5,-109.05,1424.0
1787135117.5981276,-9.534,-1.968,-0.429,1.28,-0.19,-0.131,82.8,-40.65,-109.05,1424.0
1787135117.803381,-8.885,0.527,1.281,2.595,-0.141,-0.336,81.3,-45.0,-84.0,1450.0
1787135117.8034058,-9.924,0.663,1.755,2.878,-0.2,-0.358,81.0,-43.5,-80.7,1450.0
1787135117.8034177,-10.274,1.329,1.63,3.045,-0.363,-0.375,78.9,-43.65,-76.5,1450.0
1787135118.0041044,-8.382,4.331,7.898,2.085,-0.352,-0.595,75.0,-30.6,-53.4,1564.0
1787135118.0072947,-7.987,4.377,8.894,1.492,-0.21,-0.604,73.65,-30.15,-54.0,1564.0
1787135118.0073204,-7.982,4.276,9.543,0.663,0.109,-0.565,74.1,-28.2,-51.45,1564.0
1787135118.2137206,-9.158,2.176,5.047,-2.384,0.22,0.088,73.95,-36.15,-61.2,1564.0
1787135118.213747,-9.251,1.982,4.559,-2.481,0.275,0.052,72.9,-39.0,-62.1,1564.0
1787135118.415259,-9.716,-0.852,-0.304,-2.4,0.64,0.52,80.4,-45.15,-100.05,1396.0
1787135118.4152832,-10.491,-0.766,-0.869,-2.27,0.386,0.573,80.85,-44.4,-103.65,1396.0
1787135118.6226993,-9.689,-2.931,-1.48,-0.369,0.166,-0.066,82.5,-38.4,-115.65,1415.0
1787135118.6227255,-9.72,-3.105,-1.073,-0.176,0.276,-0.082,83.1,-38.25,-117.0,1415.0
1787135118.6227372,-9.869,-2.926,-0.838,0.115,0.123,-0.018,84.0,-36.9,-117.15,1415.0
1787135118.8266184,-9.895,-1.82,0.792,0.488,0.012,0.022,81.0,-39.9,-112.65,1414.0
1787135118.8266437,-10.046,-1.791,0.675,0.538,-0.04,0.011,81.9,-41.25,-112.95,1414.0
1787135118.8266554,-9.969,-1.669,0.476,0.611,-0.076,0.016,83.1,-41.25,-111.75,1414.0
1787135119.0307982,-10.125,-1.128,0.611,1.394,-0.26,-0.105,82.35,-42.15,-102.6,1390.0
1787135119.0308251,-10.132,-1.039,0.651,1.55,-0.375,-0.125,81.75,-45.0,-100.95,1390.0
1787135119.2364523,-8.88,0.876,3.314,2.087,-0.826,-0.129,79.5,-44.55,-79.2,1448.0
1787135119.2364779,-8.363,1.314,3.275,2.044,-0.689,-0.17,79.05,-43.8,-75.9,1448.0
1787135119.2364893,-8.466,1.341,3.026,1.939,-0.407,-0.199,77.85,-42.9,-73.5,1448.0
1787135119.4420733,-8.135,1.776,5.42,1.418,-0.047,-0.324,74.85,-35.55,-57.75,1539.0
1787135119.4420996,-8.289,2.179,5.866,1.12,0.126,-0.292,73.5,-34.2,-56.1,1539.0
1787135119.646143,-9.175,2.794,7.269,-1.745,0.623,-0.376,72.75,-35.25,-57.45,1539.0
1787135119.6461737,-9.431,2.112,6.285,-2.021,0.405,-0.309,72.15,-37.05,-59.85,1539.0
1787135119.8486884,-8.753,-0.148,2.358,-2.485,-0.046,0.028,71.25,-46.2,-83.7,1451.0
1787135119.8487136,-8.377,-0.347,2.186,-2.457,-0.07,0.054,71.7,-46.2,-88.35,1451.0
1787135119.8511155,-8.174,-0.517,1.915,-2.478,0.007,0.106,72.0,-47.25,-88.8,1451.0
1787135120.0569303,-10.862,-2.614,-2.167,-1.307,0.391,0.413,78.3,-39.15,-118.95,1416.0
1787135120.0569572,-11.495,-2.82,-2.614,-1.024,0.169,0.321,78.3,-35.7,-119.4,1486.0
1787135120.0569687,-11.782,-3.024,-2.78,-0.669,-0.058,0.26,79.35,-36.3,-119.85,1486.0
1787135120.260277,-9.292,-3.019,0.668,0.312,-0.076,-0.081,78.75,-37.65,-118.2,1492.0
1787135120.2603025,-9.131,-2.832,0.539,0.308,0.041,-0.085,79.5,-37.65,-118.65,1491.0
1787135120.466622,-9.855,-2.808,-3.144,1.719,0.229,0.01,81.75,-40.35,-113.4,1465.0
1787135120.4666476,-9.665,-2.602,-3.378,2.067,0.035,0.062,81.3,-41.1,-111.3,1465.0
1787135120.4666593,-9.778,-2.167,-2.935,2.426,-0.209,0.146,80.1,-41.25,-108.15,1394.0
1787135120.670251,-10.353,2.679,1.231,3.649,-0.344,-0.187,79.05,-43.8,-78.15,1394.0
1787135120.6702797,-10.659,2.693,2.356,3.702,-0.456,-0.253,79.5,-41.85,-71.1,1394.0
1787135120.6702912,-10.815,3.318,2.931,3.726,-0.728,-0.297,78.6,-40.95,-69.45,1507.0
1787135120.8761263,-8.109,4.223,6.764,1.502,-0.234,-0.198,72.6,-21.15,-47.1,1507.0
1787135120.8761582,-8.344,4.228,7.379,1.042,-0.292,-0.167,71.85,-20.4,-45.9,1507.0
1787135121.0842986,-10.051,3.462,5.713,-2.5,-0.083,0.204,73.2,-29.55,-52.05,379.0
1787135121.0843241,-9.507,3.1,5.253,-2.818,-0.038,0.149,73.2,-29.55,-52.05,379.0
1787135121.0843353,-9.412,2.837,4.906,-3.048,0.093,0.105,73.65,-33.15,-58.05,379.0
1787135121.2855105,-8.42,0.613,1.63,-3.151,-0.054,0.217,73.35,-45.9,-83.4,1507.0
1787135121.285536,-8.533,0.019,1.302,-3.086,-0.094,0.344,73.65,-45.6,-88.95,1507.0
1787135121.2855473,-8.042,-0.385,1.027,-2.921,-0.048,0.434,74.7,-45.75,-93.15,1414.0
1787135121.4931796,-9.924,-2.018,-2.325,-1.704,-0.118,0.49,79.8,-39.6,-114.15,1417.0
1787135121.693489,-9.773,-2.392,0.941,0.19,0.153,-0.132,82.05,-37.95,-118.95,1481.0
1787135121.693515,-9.898,-2.509,0.651,0.191,0.244,-0.158,82.35,-37.5,-118.35,1481.0
1787135121.8987463,-9.955,-2.057,-0.596,1.537,-0.208,-0.165,81.6,-41.25,-110.7,1414.0
1787135121.8987732,-9.701,-1.805,-0.575,1.677,-0.291,-0.163,79.65,-41.7,-109.2,1414.0
1787135121.8987849,-9.685,-1.86,-0.266,1.931,-0.302,-0.185,81.75,-42.3,-106.8,1414.0
1787135122.1039944,-9.622,0.883,0.438,3.196,-0.098,-0.507,77.55,-45.0,-82.5,1444.0
1787135122.10402,-10.305,1.068,1.24,3.392,-0.2,-0.558,77.4,-42.9,-76.5,1444.0
1787135122.3084679,-9.321,2.796,5.562,2.239,0.092,-0.375,70.95,-24.9,-50.55,1444.0
1787135122.308493,-10.02,2.962,5.825,2.09,-0.417,-0.227,73.5,-23.7,-49.35,1444.0
1787135122.5133429,-8.77,2.497,5.861,-0.073,-0.238,0.213,72.45,-16.35,-43.95,582.0
1787135122.5133724,-8.203,2.504,6.203,-0.316,-0.106,0.218,71.7,-17.1,-45.0,427.0
1787135122.513384,-8.198,2.514,6.448,-0.555,0.115,0.236,72.75,-17.1,-45.0,427.0
1787135122.7180533,-9.498,2.998,4.681,-3.034,0.274,0.26,71.1,-31.95,-54.0,550.0
1787135122.7180793,-9.632,2.739,4.154,-3.195,0.098,0.266,71.1,-32.4,-55.8,550.0
1787135122.7180903,-9.493,2.693,3.713,-3.371,-0.148,0.347,72.75,-36.9,-60.15,550.0
1787135122.9213989,-9.392,0.843,0.345,-3.284,0.113,0.63,75.75,-46.2,-92.85,1498.0
1787135122.9214234,-9.531,-0.316,-0.364,-2.971,-0.204,0.743,78.0,-46.2,-98.7,1415.0
1787135122.9214346,-9.706,-0.634,-0.929,-2.735,-0.251,0.819,77.55,-45.0,-100.95,1415.0
1787135123.1285057,-10.094,-3.199,-0.503,-0.411,0.031,0.123,82.65,-38.55,-116.55,1432.0
1787135123.1285317,-10.096,-3.22,-0.196,-0.185,0.094,0.08,83.55,-38.4,-114.15,1477.0
1787135123.1285434,-10.173,-3.371,0.12,-0.013,0.0,0.062,81.3,-39.6,-115.35,1477.0
1787135123.330786,-9.811,-2.382,-0.182,1.229,-0.143,-0.172,83.25,-41.55,-109.8,1456.0
1787135123.5379481,-9.311,0.019,1.295,2.728,-0.427,-0.303,80.25,-47.25,-87.75,1417.0
1787135123.5381444,-9.062,0.551,1.379,2.896,-0.379,-0.345,80.25,-46.2,-85.8,1417.0
1787135123.7402525,-8.25,3.819,5.629,2.533,-0.184,-0.574,72.15,-31.2,-54.0,1531.0
1787135123.7402766,-8.37,3.912,6.479,2.135,-0.103,-0.545,72.15,-29.25,-52.5,1531.0
1787135123.9479027,-9.342,2.222,5.923,-0.79,0.322,-0.07,72.0,-23.25,-47.55,379.0
1787135123.947928,-9.577,2.128,5.997,-0.973,0.125,-0.006,72.45,-26.1,-48.3,379.0
1787135123.94794,-9.586,2.131,6.251,-1.114,-0.124,0.06,73.2,-26.1,-48.75,379.0
1787135124.151967,-9.052,2.792,4.451,-3.002,-0.104,0.218,71.1,-40.95,-63.6,379.0
1787135124.1519918,-8.464,2.315,4.101,-3.212,-0.004,0.256,72.75,-40.65,-66.0,379.0
1787135124.1520476,-8.437,2.011,3.263,-3.328,0.222,0.263,72.45,-41.1,-71.1,379.0
1787135124.3561265,-9.498,-1.073,-0.474,-2.763,-0.163,0.391,76.65,-43.95,-99.6,1417.0
1787135124.3561592,-10.077,-1.192,-1.094,-2.581,-0.416,0.487,77.1,-44.4,-103.65,1417.0
1787135124.561676,-9.965,-3.479,-0.429,-0.267,-0.08,0.152,83.4,-39.0,-115.8,1523.0
1787135124.5617015,-9.823,-3.44,-0.055,-0.106,0.014,0.086,82.5,-36.45,-116.7,1523.0
1787135124.56176,-9.85,-3.366,0.093,0.002,0.072,0.037,82.35,-37.05,-115.8,1523.0
1787135124.76685,-9.984,-2.591,0.895,0.571,0.029,-0.138,83.1,-39.0,-113.25,1491.0
1787135124.766942,-9.888,-2.521,0.532,0.689,-0.014,-0.135,82.05,-39.6,-113.85,1491.0
1787135124.7669547,-9.998,-2.466,0.28,0.806,-0.026,-0.151,81.15,-40.5,-112.2,1491.0
1787135124.9708114,-9.493,0.821,1.372,2.994,-0.124,-0.371,78.6,-43.95,-84.9,1426.0
1787135124.9708374,-9.428,1.097,1.458,3.118,-0.119,-0.46,79.05,-44.25,-82.95,1426.0
1787135125.176468,-9.036,2.99,5.737,2.632,0.465,-0.766,72.45,-24.9,-50.55,1513.0
1787135125.1764927,-9.364,3.242,5.954,2.354,0.168,-0.595,72.45,-22.2,-48.75,1513.0
1787135125.1765044,-8.428,3.321,5.962,2.075,-0.016,-0.426,73.2,-21.75,-47.55,1513.0
1787135125.3799942,-7.748,3.208,5.626,1.261,0.044,-0.192,73.35,-17.7,-44.85,1513.0
1787135125.3800194,-7.985,2.959,5.629,0.92,0.108,-0.09,72.15,-16.2,-43.35,1513.0
1787135125.3800318,-8.037,2.744,5.657,0.645,0.138,0.036,72.15,-14.55,-44.85,407.0
1787135125.5844908,-9.998,2.856,5.076,-3.017,-0.238,0.204,72.75,-26.1,-52.35,400.0
1787135125.5845168,-9.874,3.045,4.618,-3.266,-0.471,0.213,70.5,-31.8,-53.85,400.0
1787135125.5845284,-9.151,2.435,4.132,-3.427,-0.39,0.217,71.85,-33.15,-57.3,400.0
1787135125.7950406,-8.973,1.525,3.51,-3.275,-0.268,0.274,72.6,-40.95,-66.6,400.0
1787135125.7950637,-8.885,1.717,2.859,-3.458,-0.342,0.284,71.1,-41.7,-69.45,400.0
1787135125.7950752,-8.964,0.318,2.174,-3.405,-0.297,0.4,72.75,-43.05,-74.85,400.0
1787135125.996299,-9.845,-3.388,-0.227,-0.728,0.306,0.165,79.35,-40.5,-107.4,1434.0
1787135125.996324,-9.977,-3.577,-0.031,-0.548,0.345,0.108,78.75,-41.1,-108.3,1434.0
1787135125.996336,-10.092,-3.747,0.352,-0.336,0.187,0.096,80.85,-40.95,-108.15,1434.0
1787135126.1992478,-9.895,-2.844,1.63,0.466,0.02,0.035,78.75,-41.85,-106.5,1455.0
1787135126.1992767,-9.749,-2.868,1.279,0.546,-0.014,0.01,79.35,-43.2,-105.15,1455.0
1787135126.403237,-9.778,-2.054,-0.546,2.201,-0.23,-0.005,79.65,-43.2,-96.75,1404.0
1787135126.4032612,-9.498,-1.525,-0.268,2.44,-0.338,0.003,79.05,-44.55,-94.35,1404.0
1787135126.6134613,-9.816,3.778,4.039,2.73,-0.056,-0.316,76.95,-29.85,-54.6,1448.0
1787135126.6134868,-9.893,3.807,4.092,2.674,-0.045,-0.33,76.95,-27.15,-52.05,1448.0
1787135126.8141437,-7.951,3.575,5.562,0.481,0.01,-0.093,75.6,-11.55,-43.35,294.0
1787135126.8141682,-8.308,3.627,5.71,0.139,0.059,-0.038,73.35,-10.35,-41.1,298.0
1787135126.8141797,-8.789,3.807,5.775,-0.272,-0.032,0.031,75.45,-11.7,-42.45,298.0
1787135127.0185094,-9.574,4.137,5.485,-2.835,-0.069,-0.036,72.15,-22.35,-48.45,312.0
1787135127.0185347,-9.673,3.934,5.009,-3.097,-0.171,-0.078,72.6,-25.05,-49.95,312.0
1787135127.2215986,-7.676,-0.5,0.558,-3.186,-0.153,0.213,72.15,-45.15,-83.85,1594.0
1787135127.221625,-8.301,-1.142,0.153,-2.998,0.07,0.243,72.45,-45.3,-86.25,1436.0
1787135127.223308,-8.899,-1.879,-0.139,-2.731,0.057,0.262,72.45,-45.3,-86.25,1436.0
1787135127.4293625,-9.558,-3.876,-0.141,-0.482,0.148,0.285,79.35,-42.15,-105.6,1418.0
1787135127.4293883,-9.787,-3.912,0.35,-0.282,0.042,0.251,77.55,-40.65,-106.05,1438.0
1787135127.4293997,-9.754,-3.721,0.706,-0.159,-0.042,0.227,79.65,-42.45,-105.9,1438.0
1787135127.631645,-9.522,-3.077,2.631,0.08,0.114,-0.024,77.25,-43.5,-105.3,1432.0
1787135127.6316743,-9.383,-2.971,2.375,0.052,0.132,-0.045,79.35,-42.9,-104.1,1432.0
1787135127.6316862,-9.299,-3.045,1.966,0.092,0.221,-0.058,78.3,-41.85,-106.05,1425.0
1787135127.8389115,-10.027,-2.887,0.007,1.587,0.254,-0.11,76.35,-44.4,-98.55,1422.0
1787135127.838937,-9.771,-2.567,-0.065,1.81,0.084,-0.104,77.4,-42.45,-97.05,1422.0
1787135127.8389492,-9.483,-2.116,-0.096,1.963,-0.027,-0.129,76.95,-43.5,-94.35,1398.0
1787135128.0428078,-9.919,0.517,1.164,2.951,0.322,-0.297,76.35,-39.0,-67.95,1439.0
1787135128.042835,-9.823,0.984,1.231,3.072,0.183,-0.294,73.95,-37.95,-64.8,1439.0
1787135128.0428462,-9.495,1.075,1.63,3.179,0.176,-0.308,75.75,-35.25,-63.45,1439.0
1787135128.248509,-7.841,3.388,6.062,0.929,-0.196,0.064,73.2,-10.5,-42.0,363.0
1787135128.2485344,-7.841,3.127,5.866,0.694,0.239,-0.024,71.7,-12.15,-41.7,363.0
1787135128.4509082,-10.18,3.946,5.952,-1.6,0.037,-0.07,72.6,-13.5,-43.05,391.0
1787135128.4509337,-9.692,3.654,5.763,-2.013,-0.146,-0.082,72.45,-13.65,-43.95,391.0
1787135128.657956,-7.535,1.403,3.268,-3.306,-0.552,0.353,69.3,-37.8,-62.85,391.0
1787135128.6579823,-7.307,1.068,3.038,-3.402,-0.028,0.333,70.05,-37.8,-62.85,391.0
1787135128.657994,-8.341,0.871,2.559,-3.463,0.159,0.336,70.2,-40.35,-71.1,391.0
1787135128.8632057,-8.957,-2.54,-0.567,-2.019,-0.06,0.402,75.15,-43.65,-97.05,1431.0
1787135128.8632364,-9.562,-3.05,-0.642,-1.713,0.157,0.388,77.4,-43.95,-100.35,1431.0
1787135129.0663042,-9.637,-3.591,1.305,-0.03,0.021,0.125,77.1,-42.45,-106.2,1417.0
1787135129.0663304,-9.768,-3.503,1.729,0.086,-0.047,0.102,77.1,-41.25,-106.65,1417.0
1787135129.2729063,-9.426,-2.598,2.605,0.132,0.013,-0.059,77.1,-43.2,-104.1,1422.0
1787135129.2729316,-9.45,-2.6,2.282,0.128,0.055,-0.067,76.95,-43.8,-103.5,1422.0
1787135129.272943,-9.457,-2.722,2.009,0.162,0.057,-0.08,76.2,-43.05,-105.3,1422.0
1787135129.4762797,-9.254,-3.089,-0.74,1.358,-0.053,0.004,77.55,-44.55,-99.45,1393.0
1787135129.4763057,-8.928,-2.998,-0.953,1.659,-0.021,0.009,77.55,-44.55,-97.2,1403.0
1787135129.4763172,-8.724,-2.792,-1.204,1.937,0.115,0.027,77.85,-43.95,-95.55,1403.0
1787135129.6812563,-10.63,0.809,3.093,3.316,-0.606,-0.185,74.85,-39.0,-67.2,1440.0
1787135129.6812823,-10.058,1.511,3.203,3.136,-0.625,-0.339,73.95,-37.95,-65.25,1440.0
1787135129.8864808,-9.637,3.122,4.769,1.699,-0.237,-0.302,72.9,-13.8,-42.3,619.0
1787135129.8865075,-8.914,2.873,5.409,1.331,-0.359,-0.245,72.15,-10.35,-43.05,619.0
1787135129.886519,-8.049,2.758,5.567,1.034,-0.186,-0.209,71.7,-9.45,-41.7,619.0
1787135130.0919187,-8.1,3.369,6.744,-1.517,0.142,0.172,71.1,-11.1,-42.3,547.0
1787135130.0919435,-8.353,3.464,6.457,-1.887,0.341,0.183,69.3,-11.1,-41.55,547.0
1787135130.0919547,-8.736,3.369,6.074,-2.202,0.362,0.209,70.35,-14.55,-42.6,547.0
1787135130.2964087,-9.151,1.243,1.865,-3.472,0.461,0.216,71.85,-33.15,-58.8,954.0
1787135130.2964334,-9.895,0.692,1.046,-3.308,0.112,0.258,73.5,-39.15,-66.3,954.0
1787135130.5014968,-10.654,-1.678,-0.488,-2.026,-0.371,0.288,76.65,-46.65,-90.45,1393.0
1787135130.5015225,-9.167,-2.823,-0.436,-1.889,-0.26,0.276,75.6,-43.2,-92.7,1393.0
1787135130.501534,-9.656,-3.108,-0.424,-1.583,0.249,0.245,75.9,-43.95,-94.2,1393.0
1787135130.706406,-9.893,-3.467,0.419,-0.011,-0.063,-0.019,78.0,-44.25,-101.25,1406.0
1787135130.7064316,-9.807,-3.12,0.601,0.032,-0.122,-0.016,77.55,-44.55,-103.5,1406.0
1787135130.7064445,-9.701,-3.098,0.826,0.115,-0.119,-0.028,77.25,-43.5,-102.0,1406.0
1787135130.9141746,-9.55,-2.835,0.74,0.757,-0.038,-0.102,76.65,-44.85,-96.3,1390.0
1787135130.914206,-9.634,-2.899,0.457,0.883,0.027,-0.112,74.7,-45.0,-96.45,1390.0
1787135130.9142125,-9.912,-2.94,0.321,1.075,0.024,-0.12,77.4,-44.85,-95.25,1390.0
1787135131.1176934,-10.099,-0.795,0.493,2.317,-0.167,-0.327,74.25,-44.25,-76.95,1434.0
1787135131.1177177,-10.46,-0.508,0.946,2.514,-0.3,-0.348,75.15,-43.65,-75.75,1434.0
1787135131.1177294,-10.408,-0.093,1.329,2.739,-0.469,-0.394,74.7,-41.85,-72.9,1434.0
1787135131.323671,-9.074,1.645,4.029,3.033,-0.22,-0.708,67.95,-26.85,-50.1,1540.0
1787135131.323696,-8.236,2.1,4.108,2.99,-0.139,-0.742,68.25,-24.9,-49.35,1540.0
1787135131.323707,-7.412,2.116,4.633,2.814,0.112,-0.799,67.05,-22.35,-45.9,1540.0
1787135131.5243578,-8.873,2.907,7.017,-0.957,-0.038,0.332,67.2,-9.0,-40.2,1064.0
1787135131.5243828,-8.583,2.816,6.879,-1.271,0.078,0.318,66.75,-10.95,-41.25,1089.0
1787135131.524394,-8.392,2.981,6.711,-1.543,0.312,0.292,67.5,-10.95,-42.75,1089.0
1787135131.7397609,-8.179,2.387,4.058,-3.325,0.296,0.512,68.7,-28.8,-49.35,1105.0
1787135131.7397852,-7.98,1.894,3.517,-3.376,0.338,0.485,68.1,-30.45,-52.2,1105.0
1787135131.7397964,-9.086,1.422,3.014,-3.348,0.21,0.584,68.25,-33.0,-55.35,1105.0
1787135131.9358416,-10.52,-0.529,0.237,-2.917,0.15,0.411,74.25,-45.3,-86.55,1490.0
1787135131.9358728,-10.25,-1.049,0.261,-2.835,-0.013,0.438,76.2,-46.5,-91.35,1490.0
1787135131.9358842,-8.78,-1.647,0.031,-2.642,0.217,0.436,76.2,-45.0,-92.85,1390.0
1787135132.1390762,-10.628,-3.551,-1.245,-0.444,0.055,0.244,80.55,-41.85,-106.5,1395.0
1787135132.139102,-10.501,-3.393,-1.046,-0.138,-0.155,0.229,79.65,-42.15,-109.2,1395.0
1787135132.1391592,-10.312,-3.278,-0.453,0.113,-0.366,0.217,81.9,-41.7,-109.65,1406.0
1787135132.343186,-9.881,-2.401,1.832,0.214,-0.019,-0.153,80.85,-43.95,-106.95,1404.0
1787135132.3432677,-9.742,-2.437,1.621,0.245,-0.081,-0.134,81.15,-43.65,-105.15,1404.0
1787135132.5492013,-9.299,-2.461,-1.025,1.946,-0.204,-0.177,78.3,-45.3,-97.2,1414.0
1787135132.5492203,-9.021,-1.93,-0.663,2.157,-0.196,-0.189,79.35,-43.95,-95.55,1414.0
1787135132.5492265,-9.043,-1.669,-0.522,2.369,-0.074,-0.204,79.05,-44.25,-92.4,1414.0
1787135132.7546694,-9.213,0.819,1.82,2.971,0.184,-0.556,75.0,-36.9,-64.5,1481.0
1787135132.7546985,-9.553,0.85,2.035,2.994,0.364,-0.559,75.9,-35.1,-62.85,1481.0
1787135132.75471,-10.678,1.3,2.749,3.067,0.14,-0.556,75.45,-34.2,-59.7,1481.0
1787135132.963318,-8.514,2.071,5.054,1.46,0.255,-0.404,72.15,-17.4,-44.85,716.0
1787135132.963344,-8.65,2.073,5.382,1.243,0.18,-0.319,73.2,-15.6,-44.7,716.0
1787135133.1639726,-10.001,2.009,4.913,-2.313,-0.38,0.292,71.7,-21.45,-48.3,442.0
1787135133.1639981,-10.233,1.942,4.64,-2.556,-0.5,0.288,71.25,-24.15,-49.05,442.0
1787135133.1640098,-9.855,1.705,4.161,-2.729,-0.53,0.271,72.15,-27.0,-50.7,442.0
1787135133.3672888,-8.631,0.005,1.635,-2.851,0.085,0.292,71.1,-42.9,-74.55,1493.0
1787135133.3673115,-9.091,-0.357,1.307,-2.807,0.186,0.25,71.25,-43.8,-76.35,1493.0
1787135133.3673232,-9.048,-0.781,1.07,-2.745,0.098,0.271,70.95,-42.3,-81.0,1493.0
1787135133.5721953,-9.414,-2.65,-0.761,-1.641,0.212,0.464,77.25,-42.6,-100.2,1407.0
1787135133.5722213,-9.694,-3.026,-0.848,-1.313,0.361,0.412,78.15,-42.9,-100.8,1403.0
1787135133.5722327,-10.29,-3.026,-1.039,-1.032,0.358,0.419,77.4,-43.2,-104.1,1403.0
1787135133.7783742,-9.981,-2.916,1.183,0.102,0.037,0.129,77.85,-43.2,-105.6,1404.0
1787135133.7783988,-9.984,-2.835,1.585,0.109,0.062,0.083,78.9,-42.15,-107.4,1400.0
1787135133.77841,-10.125,-2.626,1.765,0.129,0.073,0.016,76.95,-43.05,-104.55,1400.0
1787135133.9832292,-10.013,-2.48,1.132,0.208,0.021,-0.085,78.15,-43.95,-104.85,1386.0
1787135133.9832485,-10.113,-2.476,0.843,0.312,-0.08,-0.076,78.0,-43.8,-104.55,1397.0
1787135133.9832547,-10.154,-2.617,0.551,0.426,-0.133,-0.097,77.4,-43.65,-104.4,1397.0
1787135134.1866863,-9.735,-1.997,0.189,1.849,-0.435,-0.259,77.85,-45.15,-94.2,1393.0
1787135134.1867125,-9.541,-1.645,0.421,2.152,-0.101,-0.387,77.1,-46.65,-88.65,1399.0
1787135134.186724,-9.831,-1.583,0.599,2.333,-0.115,-0.387,75.45,-44.55,-86.55,1399.0
1787135134.390323,-8.928,-0.043,0.917,2.92,0.074,-0.52,72.6,-38.55,-66.15,1484.0
1787135134.3903482,-9.421,-0.05,1.135,3.068,0.077,-0.512,73.5,-36.9,-63.45,1484.0
1787135134.5960684,-8.265,3.426,5.966,2.074,-0.354,0.064,70.5,-14.1,-43.95,1056.0
1787135134.596098,-8.047,3.804,6.73,1.656,-0.369,0.081,68.55,-12.3,-42.3,1056.0
1787135134.5961094,-7.961,3.615,6.821,1.204,-0.147,0.133,69.6,-11.85,-44.1,1090.0
1787135134.802139,-9.189,2.504,4.858,-2.392,0.055,-0.073,70.2,-15.6,-43.2,1084.0
1787135134.802164,-9.155,2.193,4.472,-2.523,-0.022,-0.062,69.6,-18.15,-44.85,1084.0
1787135134.802176,-8.875,1.966,4.278,-2.593,-0.145,-0.021,70.05,-19.65,-46.35,1084.0
1787135135.004472,-8.736,-0.074,2.337,-3.017,-0.204,0.363,67.2,-40.65,-67.05,1521.0
1787135135.0044966,-8.643,-0.208,2.081,-3.079,-0.326,0.452,69.3,-40.2,-72.75,1521.0
1787135135.004508,-8.126,-0.874,1.47,-3.067,-0.22,0.487,69.6,-41.25,-73.95,1521.0
1787135135.2110775,-10.645,-3.412,-0.702,-1.141,-0.258,0.408,75.6,-42.45,-97.05,1407.0
1787135135.2111037,-10.475,-3.634,-0.378,-0.912,-0.165,0.314,74.7,-43.05,-97.65,1407.0
1787135135.2111146,-10.005,-3.682,0.086,-0.717,-0.01,0.229,76.65,-44.4,-100.35,1407.0
1787135135.4167988,-9.436,-3.385,1.061,0.091,0.066,0.023,76.5,-41.85,-99.9,1410.0
1787135135.416824,-9.618,-3.273,1.293,0.173,-0.009,0.002,75.6,-43.95,-101.55,1410.0
1787135135.4168355,-9.354,-2.99,1.65,0.208,-0.002,-0.027,76.65,-42.9,-99.6,1410.0
1787135135.6235015,-9.531,-2.942,1.293,0.485,-0.077,-0.081,75.6,-43.95,-97.8,1406.0
1787135135.6235263,-9.471,-3.017,0.927,0.546,0.031,-0.082,76.5,-43.5,-97.65,1406.0
1787135135.623538,-9.553,-3.093,0.613,0.658,0.134,-0.112,75.15,-43.95,-96.3,1406.0
1787135135.8257277,-9.649,-2.255,0.441,2.238,-0.025,-0.09,74.25,-44.25,-83.25,1433.0
1787135135.8257546,-9.754,-1.767,0.682,2.39,-0.17,-0.087,72.9,-43.2,-81.6,1433.0
1787135135.8257666,-9.122,-1.106,1.01,2.475,-0.079,-0.151,73.35,-42.9,-76.5,1433.0
1787135136.0261247,-9.445,1.774,3.077,2.951,-0.611,-0.333,71.25,-31.5,-53.4,1542.0
1787135136.0298977,-9.493,2.255,3.716,2.802,-0.778,-0.368,71.55,-26.55,-49.2,1542.0
1787135136.0299234,-8.782,2.301,4.243,2.589,-0.764,-0.394,70.2,-26.1,-49.35,1542.0
1787135136.2361584,-9.05,2.452,6.539,0.388,0.5,-0.189,68.7,-12.9,-43.95,1070.0
1787135136.2361958,-9.512,2.763,6.546,0.147,0.208,-0.121,69.3,-12.3,-43.35,1070.0
1787135136.438531,-8.803,1.827,4.269,-2.93,-0.048,0.262,67.8,-28.5,-51.0,1097.0
1787135136.4385564,-8.703,1.475,3.745,-3.113,-0.143,0.292,67.35,-30.9,-54.0,1097.0
1787135136.6451566,-8.973,-1.322,1.358,-2.612,-0.213,0.589,69.45,-45.75,-81.0,1529.0
1787135136.6451817,-8.624,-1.343,1.171,-2.47,-0.054,0.567,71.25,-43.8,-84.3,1529.0
1787135136.645193,-8.717,-1.7,0.713,-2.41,0.08,0.581,70.8,-44.85,-85.65,1529.0
1787135136.8505485,-10.092,-3.936,-0.721,-0.554,0.03,0.309,78.6,-42.9,-103.35,1388.0
1787135136.8505738,-9.847,-3.912,-0.369,-0.296,0.04,0.268,78.0,-42.3,-104.55,1388.0
1787135137.0530756,-10.065,-2.741,2.497,0.19,0.061,-0.098,77.4,-44.85,-102.6,1417.0
1787135137.0531013,-10.046,-2.638,2.523,0.181,0.043,-0.136,77.4,-43.2,-102.9,1417.0
1787135137.2590215,-10.094,-3.199,-0.163,1.392,-0.163,-0.396,76.5,-45.3,-97.65,1402.0
1787135137.259051,-10.125,-3.141,0.177,1.707,-0.301,-0.432,75.15,-44.85,-96.0,1402.0
1787135137.2590628,-9.692,-2.966,0.373,1.908,-0.389,-0.463,74.25,-46.5,-93.15,1402.0
1787135137.4649348,-9.043,-1.159,2.095,2.567,0.02,-0.577,70.5,-41.55,-71.55,1499.0
1787135137.46496,-9.146,-0.984,2.507,2.683,-0.017,-0.553,69.6,-42.15,-70.95,1499.0
1787135137.4649713,-8.918,-0.4,2.44,2.663,-0.036,-0.547,68.7,-41.1,-66.0,1499.0
1787135137.66815,-8.636,2.78,5.61,2.772,0.038,-0.431,65.85,-21.6,-47.7,1499.0
1787135137.6681788,-8.806,2.768,6.112,2.649,-0.125,-0.325,64.35,-18.9,-43.05,1499.0
1787135137.8732371,-8.21,3.191,7.987,-0.908,0.222,0.095,64.05,-9.15,-41.55,1033.0
1787135137.8732638,-8.425,3.017,7.626,-1.27,0.29,0.115,63.6,-10.8,-41.1,1033.0
1787135137.873276,-8.995,3.0,6.948,-1.582,0.262,0.14,65.1,-10.35,-41.55,1033.0
1787135138.0774162,-8.535,0.256,3.208,-2.849,-0.113,0.43,66.0,-34.95,-58.95,1079.0
1787135138.0774412,-7.918,-0.283,2.935,-2.78,-0.111,0.43,65.1,-37.5,-61.8,1079.0
1787135138.0774539,-7.719,-0.668,2.847,-2.779,0.016,0.475,64.2,-39.15,-64.5,1079.0
1787135138.2819118,-9.242,-2.277,0.168,-2.47,0.969,0.783,73.35,-46.35,-90.75,1478.0
1787135138.2819378,-10.654,-2.184,-0.17,-1.986,0.708,0.722,75.45,-44.55,-93.15,1389.0
1787135138.2819498,-10.968,-2.535,-0.673,-1.612,0.393,0.706,75.9,-44.4,-96.0,1389.0
1787135138.4887736,-10.546,-3.529,0.199,0.179,-0.292,0.094,78.6,-43.65,-102.9,1388.0
1787135138.4887996,-10.228,-3.462,0.769,0.272,-0.283,0.018,78.9,-43.95,-102.9,1398.0
1787135138.488811,-10.051,-3.196,1.305,0.302,-0.231,-0.027,78.75,-43.8,-102.0,1398.0
1787135138.6922815,-9.711,-2.658,1.132,0.26,0.11,-0.242,78.75,-45.75,-99.15,1403.0
1787135138.6923065,-9.85,-2.816,0.972,0.357,0.042,-0.23,77.55,-44.25,-99.15,1403.0
1787135138.6923182,-9.871,-2.725,0.694,0.483,-0.092,-0.203,77.25,-44.25,-99.15,1391.0
1787135138.8985322,-9.354,-2.073,0.503,1.755,-0.168,-0.147,74.7,-44.55,-88.05,1396.0
1787135138.8985572,-9.091,-1.76,0.646,1.843,-0.185,-0.153,75.75,-45.0,-87.0,1396.0
1787135139.1010268,-9.78,-0.091,2.674,2.116,0.235,-0.325,72.75,-37.65,-63.75,1519.0
1787135139.1010563,-10.001,0.359,2.533,2.169,0.07,-0.29,73.2,-35.7,-61.95,1519.0
1787135139.3075678,-9.055,2.215,3.838,2.233,0.171,0.02,74.85,-17.4,-44.4,1519.0
1787135139.307593,-9.155,2.373,4.29,2.167,-0.037,0.058,74.85,-16.2,-43.65,1519.0
1787135139.3076048,-9.055,2.531,4.685,1.981,-0.221,0.107,73.65,-13.8,-43.35,400.0
1787135139.5115018,-9.306,3.46,7.343,-0.963,0.284,-0.008,71.7,-11.4,-41.25,383.0
1787135139.5115278,-9.651,3.208,6.891,-1.32,0.176,-0.006,71.1,-11.1,-41.85,383.0
1787135139.5115392,-9.795,3.148,6.445,-1.631,0.005,0.019,70.35,-11.1,-40.35,383.0
1787135139.7155628,-7.968,0.584,2.502,-3.084,-0.066,0.24,67.95,-37.2,-59.7,520.0
1787135139.7156334,-8.042,0.232,2.133,-3.008,0.028,0.279,67.95,-37.65,-62.25,520.0
1787135139.9216847,-10.283,-1.961,0.072,-1.469,0.398,0.511,73.65,-45.9,-89.7,1428.0
1787135139.9217672,-10.116,-2.119,-0.081,-1.333,0.346,0.487,75.45,-46.2,-93.15,1428.0
1787135139.9217796,-10.056,-2.502,-0.194,-1.147,0.394,0.413,76.95,-46.2,-92.4,1428.0
1787135140.1261678,-9.883,-2.799,1.683,0.0,0.142,-0.004,78.75,-45.0,-98.7,1400.0
1787135140.331132,-10.005,-2.535,0.558,0.816,-0.013,-0.038,76.65,-44.4,-93.75,1385.0
1787135140.3311577,-10.228,-2.306,0.57,0.983,-0.14,-0.072,78.6,-46.35,-94.2,1385.0
1787135140.5362225,-9.017,-1.058,2.081,1.431,-0.218,-0.266,75.0,-44.55,-80.7,1411.0
1787135140.5362482,-9.22,-0.919,2.152,1.534,-0.149,-0.258,75.15,-45.15,-77.55,1472.0
1787135140.53626,-9.155,-0.622,1.923,1.58,-0.071,-0.236,76.35,-43.2,-75.0,1472.0
1787135140.7414775,-8.933,1.293,2.732,2.378,-0.13,-0.044,74.4,-35.1,-58.05,1544.0
1787135140.7415035,-8.813,1.432,2.813,2.391,-0.064,-0.053,73.5,-32.25,-57.15,1544.0
1787135140.741515,-8.559,1.516,2.794,2.384,0.021,-0.045,74.7,-30.6,-54.6,1544.0
1787135140.9438205,-9.225,3.431,6.345,1.124,0.046,-0.141,71.55,-15.45,-44.85,307.0
1787135140.9438446,-9.333,3.349,6.596,0.834,0.086,-0.14,72.15,-15.45,-44.1,269.0
1787135140.9438617,-9.256,3.311,6.596,0.469,0.088,-0.161,70.5,-14.1,-43.2,269.0
1787135141.1484933,-9.129,2.677,6.067,-1.63,-0.254,0.013,71.7,-19.5,-45.3,275.0
1787135141.1485198,-8.83,2.878,5.78,-1.903,-0.371,0.074,70.95,-22.2,-45.3,416.0
1787135141.3548644,-8.612,0.646,1.597,-3.089,0.603,0.3,71.7,-45.3,-77.4,1567.0
1787135141.3548903,-9.227,-0.18,0.718,-3.012,0.677,0.205,72.0,-45.0,-79.95,1567.0
1787135141.3549023,-9.457,-0.757,0.472,-2.894,0.683,0.169,73.95,-46.2,-82.2,1567.0
1787135141.561187,-10.388,-3.541,-0.694,-1.138,0.272,0.208,77.1,-42.9,-105.6,1413.0
1787135141.5612106,-10.518,-3.474,-0.831,-0.814,0.008,0.195,78.0,-42.6,-105.75,1413.0
1787135141.7632265,-9.464,-3.17,1.168,0.236,-0.179,0.053,76.95,-44.25,-106.5,1420.0
1787135141.7632518,-9.153,-3.179,1.286,0.251,-0.03,0.005,77.4,-43.95,-106.65,1420.0
1787135141.9670463,-9.869,-2.509,-0.019,1.211,0.128,-0.06,77.4,-44.4,-99.6,1393.0
1787135142.1745014,-8.107,0.007,3.002,2.105,-0.708,-0.187,72.15,-45.15,-74.55,1495.0
1787135142.1745274,-7.975,-0.218,3.139,1.989,-0.491,-0.192,72.9,-44.4,-72.75,1495.0
1787135142.174539,-8.205,0.077,3.069,1.967,-0.199,-0.17,72.45,-42.3,-69.3,1495.0
1787135142.3786771,-8.164,2.574,3.958,3.028,-1.05,-0.113,69.6,-30.15,-51.45,1620.0
1787135142.3787029,-7.039,3.302,4.518,2.77,-0.836,-0.107,69.75,-28.35,-49.35,1620.0
1787135142.5835786,-7.815,4.252,8.94,-0.771,0.548,-0.129,64.35,-19.65,-43.35,965.0
1787135142.5836046,-7.843,4.017,8.241,-1.068,0.765,-0.15,66.45,-19.5,-43.5,965.0
1787135142.583616,-8.059,3.692,7.458,-1.338,0.802,-0.126,66.75,-18.3,-44.25,965.0
1787135142.7893589,-8.43,1.784,4.379,-2.623,0.557,0.015,68.25,-34.2,-53.4,965.0
1787135142.7893836,-8.811,1.554,4.013,-2.661,0.488,0.028,70.05,-35.85,-55.5,965.0
1787135142.7893949,-8.744,1.312,3.673,-2.711,0.334,0.07,68.1,-38.55,-61.05,965.0
1787135142.9913707,-9.357,-1.386,0.496,-1.734,0.416,0.314,73.5,-47.25,-93.9,1446.0
1787135142.9913955,-9.177,-1.528,0.223,-1.677,0.318,0.28,76.2,-46.2,-92.85,1446.0
1787135142.991407,-9.359,-1.662,0.141,-1.581,0.312,0.309,76.2,-46.95,-96.9,1400.0
1787135143.2006257,-9.62,-2.492,-0.045,-0.156,0.175,0.304,79.05,-44.55,-104.25,1379.0
1787135143.2006514,-9.835,-2.612,0.091,-0.065,0.179,0.281,81.0,-43.5,-104.55,1379.0
1787135143.2006638,-10.032,-2.569,0.211,-0.008,0.129,0.272,78.75,-44.55,-102.75,1390.0
1787135143.4031737,-11.066,-1.618,1.535,0.353,0.156,-0.22,80.55,-45.0,-100.5,1393.0
1787135143.4032044,-11.277,-1.817,0.922,0.435,0.061,-0.297,80.55,-45.0,-100.95,1393.0
1787135143.4032114,-11.068,-1.982,0.649,0.628,-0.033,-0.385,78.9,-44.85,-101.85,1388.0
1787135143.6072319,-9.462,-1.48,-0.378,1.951,-0.478,-0.44,76.5,-47.25,-89.55,1402.0
1787135143.6072571,-8.966,-1.058,-0.304,2.053,-0.535,-0.441,76.5,-45.75,-88.05,1402.0
1787135143.6072683,-9.103,-1.219,0.323,2.183,-0.572,-0.456,76.5,-45.0,-87.3,1402.0
1787135143.8110452,-9.199,0.321,2.99,3.102,-0.627,-0.569,71.1,-37.5,-62.1,1570.0
1787135143.8110707,-9.673,0.979,3.596,3.271,-1.147,-0.479,68.85,-35.55,-58.8,1570.0
1787135144.0179136,-8.772,3.021,7.108,0.344,0.509,-0.059,62.4,-19.8,-46.05,1120.0
1787135144.0179396,-9.112,2.892,7.029,0.092,0.326,0.01,62.7,-19.5,-45.0,1120.0
1787135144.0179508,-8.741,2.717,6.869,-0.163,0.216,0.068,63.45,-17.85,-46.5,1120.0
1787135144.2218444,-8.916,2.133,5.605,-2.057,-0.016,0.311,65.55,-27.0,-50.4,1132.0
1787135144.221882,-8.552,1.98,5.337,-2.208,0.144,0.271,66.75,-27.6,-52.05,1132.0
1787135144.2218938,-8.375,1.683,5.155,-2.375,0.329,0.243,65.85,-31.95,-52.2,1132.0
1787135144.4260833,-8.107,-0.443,2.533,-2.736,0.34,0.597,67.8,-45.6,-74.25,1585.0
1787135144.4261086,-8.475,-0.773,2.32,-2.705,0.484,0.67,69.6,-45.6,-77.55,1585.0
1787135144.63291,-8.906,-1.973,-0.366,-0.948,0.122,0.471,81.15,-42.9,-106.65,1387.0
1787135144.6329355,-8.365,-2.15,-0.484,-0.759,0.439,0.503,81.3,-42.3,-107.25,1387.0
1787135144.6329472,-9.112,-1.915,-1.02,-0.624,0.7,0.538,82.8,-42.3,-108.6,1387.0
1787135144.836782,-10.319,-1.923,0.086,0.533,-0.031,0.308,85.65,-42.45,-109.65,1325.0
1787135144.8368075,-10.678,-1.753,0.441,0.627,-0.023,0.241,84.9,-41.25,-108.45,1334.0
1787135144.8368192,-10.714,-1.434,0.512,0.639,-0.059,0.167,84.75,-41.85,-107.25,1334.0
1787135145.0412045,-10.695,-0.472,0.184,1.178,-0.071,-0.203,83.7,-45.15,-98.85,1365.0
1787135145.041227,-10.446,-0.304,0.148,1.322,-0.256,-0.2,84.45,-44.4,-97.5,1368.0
1787135145.246513,-9.653,1.128,1.42,2.785,-0.815,-0.553,81.3,-43.5,-75.15,1401.0
1787135145.2465386,-9.459,1.341,1.53,2.845,-0.856,-0.6,79.5,-41.1,-70.35,1505.0
1787135145.2465503,-9.436,1.226,1.633,2.827,-0.902,-0.637,78.9,-40.2,-67.95,1505.0
1787135145.4520721,-8.859,1.913,3.326,2.971,-2.077,-0.615,73.65,-31.95,-56.55,1505.0
1787135145.4520972,-7.954,2.411,4.087,2.925,-1.919,-0.684,70.35,-29.7,-55.8,1505.0
1787135145.4521203,-7.02,2.528,4.829,2.673,-1.402,-0.749,68.25,-28.35,-51.3,1505.0
1787135145.6550848,-6.634,3.414,7.872,0.17,-0.06,-0.137,65.4,-17.1,-44.25,1153.0
1787135145.6551106,-6.752,3.464,7.834,-0.195,-0.069,0.035,64.35,-18.15,-42.6,1142.0
1787135145.6551223,-6.967,3.491,7.872,-0.451,-0.04,0.186,64.8,-15.45,-42.3,1142.0
1787135145.8614988,-8.483,1.966,5.32,-2.465,-0.33,0.589,69.0,-34.95,-54.9,1110.0
1787135145.861524,-8.241,1.935,5.329,-2.603,-0.097,0.685,67.35,-36.3,-57.0,1110.0
1787135145.8615353,-8.262,1.753,4.858,-2.72,0.135,0.635,68.1,-38.55,-61.05,1110.0
1787135146.0613637,-9.189,-0.797,1.073,-2.52,0.904,0.383,75.6,-47.55,-87.45,1523.0
1787135146.0662403,-9.663,-0.488,0.603,-2.264,0.939,0.412,76.2,-46.5,-89.55,1523.0
1787135146.0662684,-9.606,-1.037,0.678,-1.877,0.634,0.356,77.25,-45.75,-94.35,1415.0
1787135146.2741873,-10.132,-2.32,1.099,0.088,-0.01,0.095,84.15,-43.95,-104.1,1394.0
1787135146.2742193,-10.12,-2.265,1.257,0.12,0.118,0.042,84.0,-42.3,-105.0,1394.0
1787135146.2742257,-10.336,-2.289,1.374,0.133,0.155,-0.005,81.9,-43.65,-104.4,1394.0
1787135146.4735258,-9.948,-1.875,0.335,0.837,-0.084,-0.223,81.75,-44.55,-100.5,1397.0
1787135146.473552,-9.546,-1.963,0.134,0.968,-0.125,-0.226,80.4,-43.65,-98.55,1397.0
1787135146.6803806,-9.618,-0.299,1.348,2.117,-0.378,-0.357,78.15,-45.6,-82.65,1442.0
1787135146.6804059,-9.189,-0.165,1.573,2.158,-0.243,-0.366,78.6,-43.65,-79.35,1442.0
1787135146.680417,-9.867,0.041,2.31,2.261,-0.288,-0.341,78.0,-45.75,-77.7,1442.0
1787135146.8841789,-10.08,1.851,3.955,2.568,-0.834,-0.469,71.85,-32.4,-56.25,1537.0
1787135146.8842044,-9.232,2.078,4.207,2.507,-1.063,-0.461,71.7,-31.8,-55.65,1537.0
1787135146.8842158,-8.124,2.727,4.199,2.298,-0.86,-0.462,69.3,-28.95,-52.2,1537.0
1787135147.0885036,-6.924,2.986,7.784,0.171,-0.275,-0.119,66.3,-18.9,-43.35,1110.0
1787135147.0885296,-6.445,2.775,8.028,-0.193,-0.021,-0.064,64.2,-17.85,-43.95,1110.0
1787135147.2939937,-8.461,2.308,6.014,-2.166,0.243,0.456,67.05,-25.8,-48.9,1086.0
1787135147.2940192,-8.775,2.109,5.59,-2.367,0.293,0.451,66.75,-28.35,-49.05,1086.0
1787135147.294031,-8.736,1.896,5.435,-2.55,0.148,0.494,68.25,-30.6,-53.1,1086.0
1787135147.4990478,-7.59,-0.335,2.433,-2.344,0.571,0.443,74.7,-46.65,-75.75,1524.0
1787135147.4990766,-7.975,-0.141,2.035,-2.318,0.686,0.538,71.25,-46.5,-79.2,1524.0
1787135147.499158,-8.035,-0.165,1.788,-2.401,0.672,0.68,75.9,-45.9,-81.6,1524.0
1787135147.7033613,-8.914,-0.972,0.567,-1.472,0.295,0.705,81.0,-45.75,-99.9,1416.0
1787135147.7034404,-9.153,-0.898,0.141,-1.332,0.546,0.752,81.6,-43.95,-100.8,1387.0
1787135147.9085796,-10.831,-1.623,1.355,0.128,0.116,-0.141,85.8,-41.85,-106.8,1373.0
1787135147.9086049,-10.673,-1.482,1.307,0.192,0.173,-0.191,87.45,-42.15,-106.65,1373.0
1787135147.9086168,-10.752,-1.319,1.144,0.22,0.176,-0.228,86.25,-42.6,-108.6,1373.0
1787135148.1147604,-10.47,-0.919,0.994,0.976,-0.267,-0.484,82.5,-45.3,-101.25,1369.0
1787135148.1147864,-10.439,-0.735,0.96,1.037,-0.325,-0.535,84.15,-45.6,-99.3,1369.0
1787135148.1147976,-10.163,-0.788,1.063,1.074,-0.372,-0.589,82.35,-44.85,-98.55,1369.0
1787135148.3185103,-9.318,-0.881,2.095,1.261,-0.173,-0.622,75.9,-47.55,-86.1,1421.0
1787135148.318535,-9.12,-0.802,2.04,1.358,-0.315,-0.608,74.7,-46.95,-85.8,1421.0
1787135148.5242023,-8.495,-0.144,3.122,2.198,-0.076,-0.36,69.0,-41.1,-67.05,1568.0
1787135148.5242279,-8.092,0.441,2.78,2.24,0.028,-0.332,67.95,-40.65,-64.2,1568.0
1787135148.524239,-8.068,0.218,3.048,2.193,0.176,-0.351,68.55,-39.75,-62.55,1568.0
1787135148.7272794,-7.884,1.666,5.485,1.381,0.051,0.014,67.35,-27.45,-51.45,1568.0
1787135148.7273033,-9.167,2.583,7.008,1.021,-0.107,0.078,66.0,-26.85,-50.55,1568.0
1787135148.7273147,-9.043,2.576,7.602,0.647,-0.302,0.114,65.55,-24.75,-48.9,1568.0
1787135148.9315119,-9.694,2.191,6.134,-1.422,0.042,0.256,66.45,-29.55,-50.1,1568.0
1787135148.9315357,-9.414,1.97,5.921,-1.525,-0.128,0.225,65.7,-30.6,-51.6,1568.0
1787135148.931547,-8.93,1.853,5.653,-1.637,-0.184,0.211,65.85,-31.95,-52.2,1568.0
1787135149.1354165,-7.681,0.462,3.467,-2.504,0.16,0.603,68.1,-44.4,-69.45,1616.0
1787135149.1354399,-7.942,0.678,2.931,-2.488,0.405,0.645,69.45,-45.3,-74.1,1616.0
1787135149.343133,-9.488,-0.639,1.142,-1.56,0.136,0.58,77.1,-48.3,-95.55,1437.0
1787135149.3431785,-9.301,-0.752,1.087,-1.485,0.214,0.549,76.35,-49.8,-95.25,1437.0
1787135149.3431854,-8.945,-1.161,0.936,-1.369,0.397,0.515,77.4,-48.3,-99.3,1437.0
1787135149.546577,-10.827,-1.274,1.202,0.074,0.073,0.233,84.75,-44.25,-105.3,1388.0
1787135149.5466025,-10.975,-1.12,1.338,0.129,0.117,0.134,85.05,-43.8,-106.05,1405.0
1787135149.546615,-11.229,-1.142,1.587,0.163,0.074,0.046,82.65,-45.15,-105.6,1405.0
1787135149.7503717,-10.755,-0.929,1.12,0.532,-0.107,-0.309,83.25,-45.75,-105.0,1394.0
1787135149.7503967,-10.781,-0.871,1.018,0.631,-0.303,-0.342,82.5,-45.0,-103.2,1394.0
1787135149.9558425,-9.754,-0.608,0.79,1.698,-0.455,-0.557,79.5,-46.5,-90.3,1398.0
1787135149.9558742,-9.598,-0.555,0.687,1.837,-0.466,-0.615,77.25,-46.95,-87.75,1398.0
1787135149.9559388,-9.455,-0.536,0.824,2.015,-0.429,-0.642,76.35,-46.35,-83.85,1442.0
1787135150.1619794,-8.875,1.482,2.916,2.677,-0.312,-0.617,71.55,-38.25,-61.35,1595.0
1787135150.162165,-8.641,1.949,3.218,2.612,-0.45,-0.658,70.2,-36.9,-58.65,1595.0
1787135150.1621735,-8.605,2.088,3.713,2.516,-0.538,-0.639,68.85,-34.8,-57.0,1595.0
1787135150.365675,-6.864,3.488,8.825,0.874,-0.559,-0.131,64.05,-20.85,-45.9,1204.0
1787135150.3657007,-6.539,3.486,9.242,0.128,-0.123,0.012,63.6,-20.4,-45.6,1204.0
1787135150.5691493,-8.861,1.731,4.98,-2.381,0.586,0.266,67.5,-30.6,-52.35,1140.0
1787135150.569175,-9.184,1.583,4.7,-2.591,0.546,0.244,68.1,-31.95,-53.25,1140.0
1787135150.7765768,-7.865,-0.457,2.995,-2.421,0.001,0.536,70.8,-48.3,-75.3,1542.0
1787135150.7766023,-7.676,-0.548,2.658,-2.267,0.1,0.745,70.2,-47.7,-78.15,1542.0
1787135150.7766144,-7.863,-0.235,1.985,-2.26,0.145,0.835,72.6,-47.85,-80.55,1542.0
1787135150.9806142,-10.305,0.177,1.123,-1.262,0.142,0.981,81.15,-47.55,-97.8,174.0
1787135150.9806404,-10.209,0.338,0.888,-1.274,0.08,0.948,82.5,-48.0,-100.5,174.0
1787135151.1834328,-10.918,-0.816,1.633,0.157,-0.036,-0.054,87.3,-42.6,-106.5,206.0
1787135151.1834583,-10.846,-0.713,1.686,0.203,-0.057,-0.126,87.45,-43.65,-106.2,206.0
1787135151.390419,-9.761,-0.338,0.606,1.094,-0.351,-0.523,85.2,-45.6,-100.35,209.0
1787135151.390444,-9.677,-0.318,0.886,1.269,-0.395,-0.571,84.0,-46.2,-97.2,209.0
1787135151.3904552,-9.452,-0.433,1.348,1.411,-0.404,-0.637,83.7,-45.6,-97.5,209.0
1787135151.5947874,-10.017,0.196,2.066,1.692,-0.556,-0.677,76.95,-47.25,-81.75,1472.0
1787135151.594813,-9.244,0.038,1.707,1.717,-0.644,-0.665,76.65,-46.65,-79.35,1472.0
1787135151.5948246,-8.88,-0.378,1.721,1.802,-0.457,-0.664,74.4,-45.9,-77.25,1472.0
1787135151.8035402,-8.401,1.068,3.098,2.525,-0.749,-0.13,72.15,-36.6,-62.1,1570.0
1787135151.8035648,-8.368,1.834,3.773,2.468,-1.185,-0.037,71.7,-34.95,-57.45,1570.0
1787135151.8035772,-8.535,2.488,4.355,2.257,-1.527,0.027,71.1,-33.6,-56.25,1570.0
1787135152.0077841,-7.187,3.041,9.397,-0.282,0.264,-0.003,62.1,-25.5,-47.4,1570.0
1787135152.00781,-7.132,3.024,9.045,-0.733,0.176,0.12,62.85,-24.75,-48.9,1146.0
1787135152.0078218,-6.905,2.84,8.662,-1.13,0.208,0.247,62.85,-28.2,-47.1,1146.0
1787135152.217706,-7.961,1.532,5.538,-2.447,0.103,0.336,67.35,-39.3,-59.85,1146.0
1787135152.2177312,-7.609,1.616,4.896,-2.593,0.086,0.374,68.25,-39.15,-60.15,1146.0
1787135152.217743,-7.563,1.422,4.537,-2.729,0.219,0.432,68.25,-43.05,-63.0,1146.0
1787135152.4144294,-9.196,0.16,2.727,-1.485,-0.081,0.604,72.9,-47.85,-85.65,1436.0
1787135152.418817,-8.969,-0.065,2.703,-1.476,0.037,0.594,76.35,-49.05,-87.9,1388.0
1787135152.4188435,-9.084,-0.369,2.71,-1.415,0.109,0.569,75.75,-48.9,-88.35,1388.0
1787135152.6191769,-8.739,-1.396,1.946,-0.963,0.761,0.455,78.3,-45.3,-99.45,1492.0
1787135152.6192029,-9.254,-1.271,1.781,-0.873,0.837,0.481,81.6,-47.55,-102.15,1492.0
1787135152.619215,-9.507,-1.439,1.458,-0.853,0.699,0.45,79.8,-46.95,-102.45,1477.0
1787135152.8243515,-10.139,-1.302,2.394,0.659,-0.267,-0.221,83.1,-45.9,-102.6,1419.0
1787135152.8243773,-10.381,-1.334,2.418,0.635,-0.074,-0.277,83.55,-48.45,-102.0,1419.0
1787135152.824389,-10.226,-1.322,2.212,0.642,0.068,-0.335,83.55,-44.55,-101.7,1419.0
1787135153.0285134,-9.007,-1.044,2.722,1.468,-0.45,-0.603,78.9,-48.3,-90.75,1427.0
1787135153.0285428,-8.626,-0.62,2.729,1.369,-0.16,-0.634,77.85,-49.8,-88.95,1427.0
1787135153.2314308,-8.684,0.113,3.986,1.606,-0.621,-0.623,69.6,-45.15,-73.2,1570.0
1787135153.2351875,-8.454,-0.012,4.415,1.689,-0.574,-0.619,69.3,-44.4,-69.45,1570.0
1787135153.2352238,-8.401,0.429,4.307,1.699,-0.494,-0.6,69.0,-44.55,-71.1,1570.0
1787135153.4379756,-7.728,0.572,4.499,1.521,-0.17,-0.309,65.55,-34.8,-56.55,1570.0
1787135153.438189,-7.582,0.922,4.501,1.41,0.038,-0.234,65.85,-33.9,-55.8,1570.0
1787135153.438202,-7.324,0.517,4.853,1.378,0.23,-0.194,66.0,-32.55,-52.35,1570.0
1787135153.6462693,-8.509,2.354,8.104,-0.338,0.298,0.12,65.4,-26.4,-49.35,1570.0
1787135153.646295,-8.784,2.289,7.973,-0.668,0.303,0.137,64.35,-28.95,-47.7,1570.0
1787135153.6463063,-8.72,2.162,7.894,-0.979,0.289,0.126,65.4,-27.9,-49.8,1570.0
1787135153.8491073,-9.177,1.441,4.97,-2.371,0.391,0.019,68.7,-38.85,-58.2,1570.0
1787135153.8491323,-8.471,1.006,4.29,-2.403,0.314,0.078,68.85,-38.25,-61.35,1570.0
1787135153.8491435,-8.468,0.848,3.912,-2.455,0.25,0.13,68.7,-42.6,-62.25,1570.0
1787135154.052641,-8.957,-0.874,1.207,-2.292,0.399,0.386,73.35,-46.35,-86.1,1395.0
1787135154.0526667,-9.098,-1.264,1.118,-2.1,0.284,0.46,74.4,-47.1,-89.7,1395.0
1787135154.0526783,-8.94,-1.314,1.063,-1.894,0.249,0.458,74.1,-47.1,-91.95,1395.0
1787135154.258523,-9.177,-2.234,0.62,-0.819,0.06,0.531,82.05,-43.8,-105.3,290.0
1787135154.2585485,-9.17,-2.076,0.424,-0.747,0.128,0.514,82.05,-41.55,-106.5,290.0
1787135154.461055,-10.788,-1.7,0.783,0.226,-0.055,0.02,85.5,-40.65,-110.1,1068.0
1787135154.4610803,-10.704,-1.815,1.003,0.335,-0.023,-0.084,87.3,-41.55,-108.3,1068.0
1787135154.6674676,-10.659,-1.403,1.032,1.187,-0.461,-0.456,83.25,-45.0,-103.5,1188.0
1787135154.6674933,-10.283,-1.437,1.063,1.373,-0.858,-0.485,82.05,-44.55,-99.15,1188.0
1787135154.6675048,-9.28,-1.006,0.898,1.463,-0.932,-0.535,81.9,-45.9,-98.85,1374.0
1787135154.872316,-10.044,0.347,1.448,2.407,-0.085,-0.659,77.1,-45.15,-78.0,1432.0
1787135155.0803735,-7.338,1.808,4.561,2.661,0.034,-0.939,66.75,-34.95,-56.85,1541.0
1787135155.0803993,-7.357,1.841,4.724,2.486,0.255,-0.76,67.2,-29.85,-53.4,1541.0
1787135155.080411,-7.774,2.296,5.2,2.39,0.176,-0.624,67.05,-29.7,-52.5,1541.0
1787135155.2829707,-7.578,3.448,8.442,0.31,-0.235,0.062,62.85,-15.45,-43.35,1092.0
1787135155.2831995,-7.412,3.393,8.614,-0.202,-0.019,0.116,64.8,-16.5,-43.35,1092.0
1787135155.2832108,-7.448,3.237,8.399,-0.727,0.205,0.134,62.85,-16.95,-42.6,1092.0
1787135155.4862838,-8.497,1.75,4.472,-2.598,0.469,0.312,67.8,-29.7,-51.0,1088.0
1787135155.4863093,-8.813,1.511,4.295,-2.64,0.371,0.309,67.95,-31.8,-50.85,1088.0
1787135155.4863207,-9.313,1.369,4.154,-2.671,0.101,0.377,67.8,-33.15,-54.0,1088.0
1787135155.6913972,-8.588,0.072,2.516,-2.688,-0.069,0.555,71.55,-45.9,-75.0,1532.0
1787135155.691425,-8.162,-0.206,1.98,-2.69,-0.052,0.614,72.45,-46.5,-79.65,1532.0
1787135155.8955243,-9.73,-1.307,-0.117,-1.353,0.306,0.479,81.9,-45.15,-101.55,1334.0
1787135155.8955503,-9.819,-1.82,0.069,-1.151,0.419,0.456,81.3,-43.8,-104.25,1334.0
1787135156.1002386,-10.329,-1.82,1.123,0.254,0.112,-0.032,84.9,-43.95,-106.2,1174.0
1787135156.100265,-10.752,-1.654,0.84,0.284,0.068,-0.073,85.05,-43.5,-107.25,1169.0
1787135156.1002767,-10.93,-1.551,0.759,0.362,-0.056,-0.117,84.3,-43.5,-106.05,1169.0
1787135156.3057375,-10.209,-1.427,0.862,1.277,-0.484,-0.344,84.75,-46.2,-97.2,1158.0
1787135156.3057623,-9.9,-1.243,0.816,1.377,-0.388,-0.367,82.5,-46.5,-95.85,1254.0
1787135156.3090668,-10.032,-1.154,0.97,1.519,-0.36,-0.359,80.85,-45.15,-94.8,1254.0
1787135156.5085206,-9.519,0.697,1.539,2.019,-0.817,-0.598,75.9,-45.6,-75.3,1401.0
1787135156.508546,-8.928,0.35,1.472,2.074,-0.778,-0.657,75.45,-43.8,-75.15,1528.0
1787135156.7149274,-6.73,2.116,5.021,2.913,-0.348,-0.728,68.1,-27.0,-50.7,1528.0
1787135156.7149506,-6.713,2.643,5.564,2.671,-0.067,-0.699,67.8,-24.3,-48.45,1528.0
1787135156.7149627,-7.01,2.44,6.225,2.465,0.13,-0.63,66.75,-21.45,-48.0,1528.0
1787135156.9236732,-8.411,3.282,7.341,-0.297,0.39,0.0,66.6,-15.0,-43.05,1080.0
1787135156.9236996,-8.631,3.266,7.034,-0.647,0.459,0.006,66.6,-16.2,-43.35,1080.0
1787135156.9237113,-8.789,2.983,6.812,-0.978,0.415,0.053,67.5,-14.1,-43.2,1096.0
1787135157.126205,-7.764,2.435,5.904,-2.614,0.312,0.548,67.95,-26.1,-50.55,1144.0
1787135157.126231,-7.987,2.327,5.392,-2.969,0.289,0.582,68.85,-30.9,-53.25,1144.0
1787135157.1262424,-8.016,2.148,4.92,-3.121,0.271,0.654,68.85,-33.15,-55.5,1144.0
1787135157.3299658,-10.57,0.517,0.673,-3.085,0.417,0.626,74.85,-47.55,-84.6,1535.0
1787135157.32999,-10.532,0.084,0.658,-2.796,0.01,0.574,75.75,-47.25,-87.3,1535.0
1787135157.3300018,-9.524,-0.017,0.187,-2.621,0.017,0.613,76.95,-47.7,-93.6,1416.0
1787135157.5345929,-9.991,-2.193,-1.032,-0.908,0.263,0.521,82.65,-42.45,-108.45,1340.0
1787135157.5346196,-10.218,-2.67,-0.848,-0.581,0.28,0.474,84.0,-43.5,-108.3,1340.0
1787135157.5346315,-10.889,-2.646,-0.524,-0.279,0.071,0.442,84.3,-42.3,-110.55,1340.0
1787135157.7415278,-10.353,-1.999,0.28,0.586,0.078,-0.211,82.05,-43.5,-107.25,1340.0
1787135157.741553,-10.542,-1.918,0.304,0.749,-0.089,-0.224,83.1,-43.65,-107.7,1340.0
1787135157.741565,-10.472,-1.64,0.29,0.859,-0.192,-0.239,83.7,-44.85,-106.65,1340.0
1787135157.9436255,-9.323,-0.687,0.929,1.597,-0.313,-0.506,80.85,-45.9,-94.5,1376.0
1787135157.9436505,-9.474,-1.039,1.271,1.647,-0.087,-0.534,81.15,-46.65,-94.2,1376.0
1787135157.943662,-9.572,-0.986,1.453,1.853,0.061,-0.549,79.35,-46.35,-91.2,1376.0
1787135158.1493986,-8.679,0.163,1.458,2.529,-0.027,-0.509,75.0,-43.05,-70.05,1539.0
1787135158.149427,-9.342,0.385,2.215,2.762,-0.243,-0.447,74.1,-43.2,-67.65,1539.0
1787135158.1494386,-8.796,0.73,2.401,2.959,-0.451,-0.409,73.95,-37.65,-64.5,1539.0
1787135158.3515751,-7.793,2.883,7.058,1.568,-0.345,-0.171,68.1,-23.1,-45.6,1101.0
1787135158.3516004,-8.068,2.993,7.506,1.123,-0.286,-0.125,67.05,-21.9,-45.15,1101.0
1787135158.3516126,-7.898,3.067,7.633,0.641,-0.202,-0.084,68.1,-21.6,-45.6,1101.0
1787135158.5590613,-9.697,1.99,5.286,-1.643,0.179,0.046,68.85,-25.05,-47.7,1091.0
1787135158.5590863,-9.902,1.86,5.397,-1.741,0.043,0.014,67.95,-28.35,-50.1,1091.0
1787135158.559098,-9.943,2.069,5.43,-1.906,-0.193,0.01,69.3,-29.25,-50.7,1091.0
1787135158.7630897,-7.949,0.225,3.821,-2.584,-0.366,0.243,66.6,-41.7,-64.65,1091.0
1787135158.763116,-7.482,-0.192,3.436,-2.728,-0.283,0.434,68.25,-44.25,-68.55,1608.0
1787135158.7631273,-7.254,-0.385,3.182,-2.713,-0.053,0.506,69.0,-42.6,-70.35,1608.0
1787135158.96855,-10.422,-0.527,0.014,-2.551,0.585,1.232,77.25,-45.75,-98.7,1465.0
1787135158.968576,-10.563,-0.192,-0.29,-2.505,0.433,1.05,79.5,-46.2,-100.95,298.0
1787135159.1712055,-10.135,-2.124,-0.886,-0.171,-0.17,0.348,85.95,-39.3,-114.3,95.0
1787135159.171232,-9.979,-2.188,-0.649,-0.008,-0.064,0.308,85.65,-39.75,-114.0,80.0
1787135159.3782167,-10.242,-1.094,-0.065,0.918,-0.202,-0.312,84.45,-43.2,-109.2,76.0
1787135159.378241,-9.972,-1.065,-0.17,1.015,-0.089,-0.358,84.45,-42.15,-108.15,76.0
1787135159.378248,-10.154,-1.295,0.122,1.269,-0.07,-0.38,84.3,-42.6,-106.8,76.0
1787135159.582524,-9.706,0.06,1.501,2.416,-0.774,-0.724,78.15,-45.6,-83.85,139.0
1787135159.7864072,-7.757,1.425,2.624,3.043,-0.348,-0.573,70.5,-33.75,-60.15,439.0
1787135159.7864323,-8.15,1.901,3.005,3.022,-0.395,-0.386,70.5,-33.75,-56.85,439.0
1787135159.9923604,-7.824,3.235,9.328,0.525,0.21,-0.196,63.9,-19.5,-47.25,1134.0
1787135159.992385,-7.851,3.127,9.189,0.112,0.238,-0.135,64.8,-18.9,-47.7,1134.0
1787135159.9923966,-7.92,2.981,8.741,-0.314,0.214,-0.049,64.2,-19.5,-45.3,1134.0
1787135160.1969707,-8.686,2.523,5.131,-2.569,0.062,0.536,68.1,-31.2,-52.5,1114.0
1787135160.1971514,-8.037,1.793,4.623,-2.689,0.115,0.607,67.2,-32.55,-53.85,1114.0
1787135160.1971676,-8.059,1.805,4.379,-2.686,0.358,0.653,69.3,-33.15,-57.3,1114.0
1787135160.4010787,-9.55,0.967,1.444,-2.504,0.654,1.245,75.15,-45.6,-79.35,1114.0
1787135160.4011056,-9.974,0.596,1.216,-2.297,0.573,1.004,77.25,-46.95,-81.45,1114.0
1787135160.6075146,-10.204,-0.412,-0.069,-0.925,0.168,0.267,84.45,-45.15,-100.35,184.0
1787135160.6075408,-10.178,-0.797,0.098,-0.764,0.109,0.223,86.25,-43.8,-102.0,184.0
1787135160.6075525,-10.008,-0.788,0.024,-0.65,0.096,0.192,84.3,-45.0,-103.2,184.0
1787135160.8116615,-10.333,-1.458,0.69,0.018,0.098,-0.001,85.2,-43.2,-105.15,190.0
1787135160.8116884,-10.537,-1.511,0.874,0.126,0.081,-0.028,86.25,-43.8,-106.05,190.0
1787135160.8117006,-10.652,-1.348,0.924,0.246,0.015,-0.106,86.7,-42.9,-105.6,190.0
1787135161.0192142,-9.886,-1.034,0.527,1.057,-0.185,-0.505,82.5,-45.0,-95.85,205.0
1787135161.0192356,-9.658,-1.065,0.524,1.242,-0.185,-0.488,81.75,-48.0,-93.9,205.0
1787135161.019242,-9.649,-0.907,0.74,1.439,-0.208,-0.442,81.6,-47.85,-94.2,325.0
1787135161.2215621,-9.129,0.263,1.808,1.744,-0.392,-0.528,75.45,-45.75,-77.4,325.0
1787135161.2215889,-9.064,0.103,1.7,1.816,-0.138,-0.591,75.6,-43.2,-74.55,325.0
1787135161.2216012,-9.491,0.218,1.609,2.009,0.088,-0.579,74.85,-43.95,-72.0,325.0
1787135161.4208627,-7.544,1.451,3.261,2.761,-0.396,-0.351,70.35,-30.45,-53.25,431.0
1787135161.63104,-7.468,3.196,8.768,-0.474,0.576,-0.023,62.55,-18.15,-44.4,1074.0
1787135161.6310651,-8.088,3.187,8.124,-0.82,0.834,-0.042,64.05,-17.4,-44.85,1074.0
1787135161.835835,-8.818,1.858,4.384,-2.667,0.192,0.22,66.75,-33.0,-53.1,1086.0
1787135161.8358736,-8.598,1.326,4.113,-2.724,0.125,0.221,65.85,-35.85,-54.75,1086.0
1787135161.835886,-8.681,1.135,3.862,-2.666,0.073,0.216,66.6,-36.6,-59.1,1086.0
1787135162.040167,-9.278,-0.998,1.901,-2.492,0.333,0.49,70.35,-45.15,-78.0,1539.0
1787135162.0401955,-9.761,-0.757,1.7,-2.31,0.046,0.521,69.45,-46.2,-78.9,1539.0
1787135162.0402076,-9.443,-0.634,1.559,-2.293,-0.263,0.518,69.6,-47.55,-84.15,1539.0
1787135162.244159,-9.151,-1.604,-0.247,-1.377,0.703,0.647,78.6,-45.9,-103.35,1245.0
1787135162.2441843,-9.922,-1.963,-0.397,-1.088,0.58,0.61,77.4,-45.15,-104.85,1245.0
1787135162.244196,-10.953,-2.246,-0.709,-0.825,0.336,0.624,78.3,-45.3,-105.3,1245.0
1787135162.4493911,-11.279,-2.377,1.041,0.129,-0.155,-0.06,79.8,-43.8,-109.35,698.0
1787135162.653672,-9.878,-1.441,0.302,1.645,-0.397,-0.299,77.4,-47.55,-97.5,614.0
1787135162.6536973,-9.629,-1.221,0.567,1.734,-0.524,-0.338,76.2,-48.0,-94.65,614.0
1787135162.6537094,-9.199,-1.216,0.773,1.827,-0.495,-0.386,76.5,-47.7,-93.15,614.0
1787135162.8593643,-9.187,0.407,2.399,2.195,-0.041,-0.325,71.1,-43.95,-70.95,1460.0
1787135162.85939,-9.39,0.749,2.16,2.221,0.019,-0.294,71.55,-41.7,-70.95,1460.0
1787135162.8594012,-9.397,0.74,2.31,2.289,0.097,-0.35,72.15,-41.7,-66.9,1460.0
1787135163.0635428,-8.27,2.102,3.867,2.848,-0.291,-0.672,70.35,-27.0,-50.4,1460.0
1787135163.0636134,-8.638,2.231,4.592,2.757,-0.119,-0.599,69.3,-25.05,-47.4,1460.0
1787135163.2691555,-8.325,3.5,8.243,-0.567,0.075,0.126,65.1,-12.3,-43.05,1084.0
1787135163.2692273,-8.265,3.464,8.162,-0.979,0.168,0.082,63.6,-13.8,-41.85,1087.0
1787135163.2692342,-8.442,3.34,7.824,-1.331,0.351,0.096,65.55,-14.25,-44.4,1087.0
1787135163.4747493,-8.89,2.253,4.118,-3.169,0.037,0.31,66.3,-32.85,-53.7,1095.0
1787135163.474775,-8.794,2.088,3.531,-3.234,-0.037,0.403,66.75,-34.5,-54.15,1095.0
1787135163.4747868,-8.531,1.573,3.189,-3.18,0.071,0.498,69.0,-37.2,-58.2,1095.0
1787135163.6815045,-9.51,-0.421,0.357,-2.341,0.496,0.666,72.15,-48.3,-83.85,1535.0
1787135163.6815298,-9.711,-0.476,-0.22,-2.209,0.411,0.618,72.9,-45.9,-86.7,1408.0
1787135163.6815412,-9.752,-0.917,-0.431,-2.134,0.326,0.623,74.25,-48.0,-91.05,1408.0
1787135163.8836675,-10.295,-2.753,0.067,-0.767,0.219,0.325,79.65,-46.35,-103.65,1351.0
1787135163.8836935,-10.412,-2.602,0.11,-0.644,0.151,0.291,79.65,-44.4,-105.6,1351.0
1787135163.883705,-10.654,-2.701,0.338,-0.533,0.04,0.187,81.15,-45.9,-106.65,1351.0
1787135164.0877204,-10.408,-2.521,1.125,0.081,0.042,-0.17,80.85,-44.85,-105.9,1345.0
1787135164.0877464,-10.396,-2.476,1.061,0.198,-0.035,-0.203,80.85,-45.15,-106.95,1345.0
1787135164.0877578,-9.941,-2.54,0.819,0.31,-0.136,-0.231,78.3,-45.3,-106.05,1335.0
1787135164.2913826,-9.002,-0.431,1.044,2.062,-0.428,-0.251,76.2,-49.2,-90.6,1383.0
1787135164.2914052,-9.165,-0.445,1.528,2.073,-0.342,-0.288,76.2,-47.25,-89.1,1383.0
1787135164.291417,-9.282,-0.438,1.877,2.195,-0.267,-0.315,74.85,-47.1,-84.9,1383.0
1787135164.499187,-10.297,1.659,1.994,2.895,-0.439,-0.669,73.2,-39.15,-62.25,1487.0
1787135164.4992075,-8.799,1.575,2.368,2.945,-0.319,-0.697,71.7,-36.15,-59.7,1487.0
1787135164.4992135,-8.952,1.978,3.079,2.968,-0.191,-0.605,71.55,-34.35,-57.75,1487.0
1787135164.7024243,-8.033,3.673,6.879,1.825,-0.371,-0.23,65.4,-15.15,-44.25,1082.0
1787135164.7024488,-8.121,3.519,7.479,1.317,-0.279,-0.213,65.55,-13.05,-44.1,1082.0
1787135164.7024605,-8.013,3.701,8.195,0.778,-0.157,-0.197,65.7,-12.45,-42.45,1082.0
1787135164.9063962,-8.61,3.27,6.019,-2.533,0.112,0.255,65.85,-21.15,-44.4,1118.0
1787135164.906422,-8.622,3.108,5.528,-2.778,0.224,0.23,64.95,-22.2,-45.75,1118.0
1787135164.9064338,-8.935,2.588,5.131,-2.91,0.233,0.21,65.1,-25.8,-48.9,1118.0
1787135165.114023,-8.787,0.819,2.665,-3.245,0.168,0.334,64.95,-41.85,-64.8,1580.0
1787135165.1140475,-8.897,0.589,2.207,-3.293,0.262,0.302,67.2,-45.0,-71.1,1580.0
1787135165.1140585,-8.686,0.215,1.59,-3.332,0.284,0.279,67.05,-45.15,-72.0,1580.0
1787135165.3162394,-9.404,-2.761,-1.599,-1.785,0.012,0.669,75.15,-46.35,-99.6,1268.0
1787135165.3162637,-9.718,-3.259,-1.544,-1.469,0.104,0.664,75.45,-45.75,-102.45,1268.0
1787135165.3162751,-10.238,-3.328,-1.446,-1.109,0.113,0.648,77.85,-45.6,-102.9,1268.0
1787135165.5217347,-10.683,-2.971,1.185,0.039,-0.109,0.04,80.25,-42.6,-107.55,468.0
1787135165.521761,-10.642,-2.732,1.386,0.047,-0.194,-0.021,79.65,-43.95,-108.9,468.0
1787135165.521773,-10.166,-2.859,1.463,0.079,-0.142,-0.064,80.55,-44.25,-108.6,468.0
1787135165.7256682,-9.89,-2.648,0.855,0.167,0.119,-0.125,78.15,-44.4,-107.7,468.0
1787135165.7256937,-10.123,-2.698,0.524,0.274,0.063,-0.154,79.65,-43.65,-106.95,792.0
1787135165.9311166,-9.172,0.041,0.486,2.807,0.09,-0.22,77.4,-44.85,-78.3,1365.0
1787135165.9311416,-9.754,0.177,1.027,2.843,0.16,-0.286,76.95,-41.55,-76.35,1458.0
1787135165.9311528,-10.616,0.565,1.585,2.939,-0.02,-0.287,75.0,-42.6,-73.35,1458.0
1787135166.1371377,-8.155,3.072,5.126,2.563,-0.288,-0.222,69.45,-17.1,-45.75,1458.0
1787135166.1371722,-8.224,3.179,5.488,2.219,-0.197,-0.115,67.5,-17.1,-45.3,1458.0
1787135166.1371796,-8.59,3.081,6.024,1.68,-0.375,-0.046,69.75,-13.65,-42.45,1458.0
1787135166.3394604,-8.923,2.947,6.778,-1.01,-0.019,-0.04,68.7,-11.4,-43.5,1017.0
1787135166.339486,-9.143,3.206,6.857,-1.31,0.032,-0.021,67.35,-13.05,-42.3,1017.0
1787135166.3394973,-9.333,3.364,6.62,-1.646,-0.034,-0.014,68.7,-15.15,-43.2,1017.0
1787135166.5465522,-8.6,2.021,3.596,-3.192,-0.054,0.13,68.55,-31.95,-53.25,1051.0
1787135166.546578,-8.262,1.104,2.789,-3.188,0.263,0.143,67.05,-36.3,-58.8,1051.0
1787135166.5465891,-9.232,0.821,2.294,-3.169,0.37,0.154,66.6,-35.85,-57.3,1051.0
1787135166.7466393,-9.91,-0.754,0.481,-3.012,-0.009,0.281,71.25,-47.25,-88.35,1466.0
1787135166.750217,-9.764,-0.869,-0.22,-2.972,-0.277,0.422,70.5,-46.5,-91.8,1466.0
1787135166.7502427,-7.898,-1.978,-0.998,-2.847,0.103,0.428,71.25,-45.75,-95.85,1466.0
1787135166.955889,-9.804,-4.573,-0.713,-0.241,0.055,0.244,76.2,-41.85,-109.35,1384.0
1787135166.9559152,-10.163,-4.185,-0.342,-0.061,-0.042,0.209,75.15,-42.15,-109.65,1384.0
1787135167.158307,-9.225,-3.268,0.591,0.214,-0.012,-0.034,75.9,-43.2,-108.9,1411.0
1787135167.1583323,-9.167,-3.211,0.227,0.389,0.123,-0.015,77.25,-44.25,-107.55,1411.0
1787135167.3652122,-10.264,-2.071,0.117,2.053,-0.146,0.005,74.85,-46.35,-95.55,1379.0
1787135167.3652372,-9.864,-1.678,0.299,2.144,-0.395,-0.029,75.9,-47.1,-94.2,1379.0
1787135167.3652487,-9.457,-1.46,0.611,2.228,-0.505,-0.113,75.0,-45.75,-90.3,1379.0
1787135167.5691953,-8.056,2.131,4.175,3.453,-0.509,-0.265,69.6,-30.9,-54.0,1558.0
1787135167.5692213,-7.712,2.646,3.991,3.434,-0.287,-0.276,66.75,-29.85,-52.35,1558.0
1787135167.7712986,-7.793,4.508,7.918,0.069,-0.077,-0.063,65.55,-11.55,-43.65,1075.0
1787135167.978929,-9.017,2.217,4.032,-3.117,0.361,-0.148,67.35,-28.5,-51.45,1051.0
1787135167.9789543,-9.249,1.733,3.725,-3.167,0.235,-0.107,67.05,-32.4,-54.75,1051.0
1787135167.9789662,-9.316,1.341,3.443,-3.066,-0.002,-0.061,67.2,-31.8,-53.85,1051.0
1787135168.184704,-8.746,-0.352,1.305,-2.833,0.336,0.315,69.0,-46.2,-78.15,1051.0
1787135168.1847296,-9.014,-0.824,1.207,-2.797,0.358,0.334,68.55,-45.6,-80.55,1051.0
1787135168.184741,-9.301,-1.128,1.171,-2.611,0.115,0.353,69.6,-46.65,-83.85,1446.0
1787135168.3881176,-9.651,-3.122,-0.124,-1.554,-0.267,0.656,75.6,-43.95,-103.65,1413.0
1787135168.3881466,-9.51,-2.942,-0.113,-1.419,-0.186,0.594,77.1,-44.4,-107.4,1413.0
1787135168.5940654,-10.511,-2.892,0.819,0.241,0.043,-0.118,79.05,-42.6,-112.65,1389.0
1787135168.594091,-10.226,-2.885,1.018,0.276,-0.027,-0.19,79.35,-42.45,-111.75,1400.0
1787135168.7996943,-9.704,-2.794,-0.005,0.942,-0.004,-0.23,77.4,-44.85,-105.9,1410.0
1787135168.7997203,-9.809,-2.693,-0.189,1.137,-0.084,-0.209,78.6,-44.85,-105.6,1410.0
1787135168.7997315,-9.268,-2.607,-0.536,1.217,-0.064,-0.216,76.35,-43.95,-103.65,1372.0
1787135169.0036337,-9.785,-1.077,0.702,2.584,-0.185,-0.176,73.5,-46.5,-85.8,1409.0
1787135169.003659,-9.538,-0.472,0.802,2.642,-0.301,-0.263,74.85,-46.65,-82.35,1409.0
1787135169.2066374,-8.995,2.33,4.719,2.644,0.111,-0.509,69.6,-23.85,-48.15,1469.0
1787135169.2066627,-8.839,2.567,5.042,2.388,0.076,-0.417,70.95,-23.25,-48.3,1469.0
1787135169.2085726,-9.084,2.449,5.42,2.133,-0.021,-0.305,68.85,-21.9,-46.65,1469.0
1787135169.408958,-8.535,2.444,6.737,-0.573,-0.007,0.084,70.5,-14.85,-43.2,1085.0
1787135169.412294,-8.717,2.526,6.488,-0.917,0.135,0.092,70.05,-13.8,-43.65,1085.0
1787135169.4123065,-9.23,2.37,6.34,-1.255,0.112,0.13,70.2,-16.8,-43.5,1085.0
1787135169.618579,-8.487,1.561,3.689,-3.111,-0.092,0.269,68.25,-33.0,-55.65,1060.0
1787135169.6186042,-8.487,1.252,3.309,-3.256,-0.118,0.31,69.3,-35.55,-57.75,1060.0
1787135169.821077,-9.766,-1.417,-0.103,-2.604,0.449,0.335,72.9,-46.35,-88.95,1383.0
1787135169.8211024,-10.305,-1.453,-0.666,-2.397,-0.045,0.415,73.65,-45.6,-93.75,1383.0
1787135170.0278294,-10.082,-3.33,-0.871,-0.313,-0.195,0.414,80.4,-42.15,-109.95,1186.0
1787135170.0278668,-10.113,-3.371,-0.627,-0.173,-0.143,0.33,81.15,-43.2,-108.9,1186.0
1787135170.027879,-10.18,-3.089,-0.292,-0.115,-0.085,0.247,80.25,-40.35,-109.05,1186.0
1787135170.2321262,-9.924,-2.794,0.766,0.219,0.121,-0.195,80.1,-42.45,-108.9,1168.0
1787135170.232158,-9.778,-2.691,0.448,0.277,0.105,-0.18,79.35,-42.45,-106.65,1177.0
1787135170.2321644,-9.847,-2.808,0.093,0.387,0.072,-0.157,80.4,-42.9,-109.2,1177.0
1787135170.43574,-9.613,-2.143,0.271,1.737,-0.208,-0.203,77.25,-45.75,-98.7,1203.0
1787135170.4357653,-9.215,-1.748,0.256,1.817,-0.291,-0.222,77.1,-46.35,-98.85,1333.0
1787135170.6416078,-9.175,0.034,1.937,2.873,-0.404,-0.269,74.7,-43.05,-69.3,1421.0
1787135170.641634,-8.794,1.051,2.303,2.903,-0.355,-0.272,73.95,-40.35,-65.55,1524.0
1787135170.6417058,-8.6,1.025,2.478,2.931,-0.253,-0.275,73.65,-39.3,-64.35,1524.0
1787135170.8468127,-8.813,3.335,6.46,1.101,-0.303,-0.071,70.8,-13.5,-42.3,949.0
1787135170.8468378,-8.423,3.251,6.919,0.672,-0.212,-0.044,70.8,-13.8,-43.05,949.0
1787135170.8469155,-8.531,3.383,6.967,0.312,-0.04,-0.05,70.35,-11.85,-41.85,949.0
1787135171.050728,-9.448,2.861,5.148,-2.034,-0.053,0.165,70.5,-17.55,-45.3,984.0
1787135171.050754,-9.373,2.65,4.934,-2.195,-0.092,0.16,68.1,-20.4,-45.15,984.0
1787135171.2562857,-8.746,0.903,3.112,-3.15,0.005,0.087,69.75,-38.85,-61.95,984.0
1787135171.2563121,-8.6,0.347,2.969,-3.17,0.035,0.052,68.55,-40.2,-64.35,984.0
1787135171.256323,-8.626,0.129,2.746,-3.087,0.009,0.057,68.55,-43.65,-70.2,984.0
1787135171.4601653,-9.158,-3.0,-0.577,-2.11,0.449,0.337,72.75,-46.5,-94.35,1420.0
1787135171.4602034,-9.977,-3.548,-0.579,-1.792,0.49,0.313,72.9,-46.35,-98.1,1420.0
1787135171.4602153,-10.185,-3.637,-0.749,-1.28,0.173,0.29,73.5,-46.95,-100.2,1420.0
1787135171.6701162,-9.579,-3.428,1.202,0.018,-0.103,0.061,74.85,-45.9,-104.85,1401.0
1787135171.6701417,-9.366,-3.318,1.279,0.027,-0.002,0.035,75.15,-45.9,-106.2,1401.0
1787135171.6701531,-9.335,-3.345,1.255,0.038,0.107,0.009,75.0,-45.0,-105.0,1401.0
1787135171.8678708,-9.792,-2.921,0.718,0.717,-0.027,0.021,75.0,-46.95,-101.25,1399.0
1787135171.8678958,-9.989,-2.895,0.819,0.805,-0.084,0.001,75.15,-45.6,-100.35,1399.0
1787135172.0752232,-10.458,-1.709,-0.043,2.159,-0.388,-0.055,73.95,-46.5,-88.8,1423.0
1787135172.0752494,-9.431,-1.377,0.156,2.229,-0.429,-0.11,74.25,-47.25,-84.75,1423.0
1787135172.0752647,-9.27,-1.391,0.62,2.334,-0.261,-0.168,73.2,-47.25,-84.75,1423.0
1787135172.2789092,-9.088,1.645,2.832,3.325,-0.253,-0.441,71.7,-33.0,-57.15,1516.0
1787135172.2789342,-8.497,2.186,3.079,3.262,-0.172,-0.43,69.6,-31.2,-54.75,1516.0
1787135172.2789454,-8.42,2.236,3.598,3.192,-0.09,-0.344,70.35,-26.55,-53.7,1516.0
1787135172.483091,-8.454,3.067,7.398,-0.681,0.484,-0.047,65.4,-12.45,-42.0,1058.0
1787135172.4831192,-8.875,2.976,6.965,-1.155,0.401,-0.003,66.3,-13.5,-42.6,1058.0
1787135172.6905713,-8.813,1.314,4.324,-2.748,-0.148,0.081,68.7,-30.6,-53.1,1086.0
1787135172.6905968,-8.801,1.274,4.099,-2.86,-0.188,0.144,67.05,-31.65,-53.25,1086.0
1787135172.690608,-8.382,0.584,3.864,-2.872,-0.103,0.202,67.95,-34.2,-54.6,1086.0
1787135172.894024,-8.222,-1.032,1.633,-2.6,0.129,0.585,70.05,-47.55,-81.6,1534.0
1787135172.894048,-8.368,-1.039,0.759,-2.624,0.289,0.598,70.35,-46.65,-84.6,1534.0
1787135172.894059,-9.136,-1.01,0.211,-2.528,0.55,0.611,71.85,-46.65,-88.2,1403.0
1787135173.0985868,-10.393,-3.199,-1.085,-0.555,0.01,0.259,79.5,-44.55,-102.45,1251.0
1787135173.0986135,-10.218,-3.261,-0.594,-0.363,0.008,0.223,78.75,-44.25,-104.25,1251.0
1787135173.3016624,-9.831,-2.571,1.255,0.245,0.012,-0.031,79.8,-45.75,-103.5,1166.0
1787135173.3016884,-9.881,-2.514,1.257,0.29,-0.014,-0.02,79.05,-46.5,-103.5,1166.0
1787135173.3035672,-9.895,-2.308,1.111,0.311,-0.014,-0.068,78.3,-45.3,-101.7,1166.0
1787135173.50941,-9.498,-2.389,0.072,1.186,0.081,-0.333,78.0,-45.75,-97.2,1290.0
1787135173.509435,-9.596,-2.253,0.012,1.386,0.152,-0.332,76.65,-45.6,-94.2,1290.0
1787135173.5094464,-9.79,-2.207,0.077,1.593,0.118,-0.314,75.75,-44.55,-92.85,1290.0
1787135173.7135632,-9.766,0.034,1.535,2.953,-0.698,-0.226,74.4,-42.15,-70.95,1468.0
1787135173.7135875,-8.638,0.323,1.829,2.951,-0.796,-0.32,73.35,-40.2,-65.85,1468.0
1787135173.9185154,-8.763,2.284,4.831,2.629,-0.314,-0.229,70.2,-22.5,-47.25,1468.0
1787135173.9185402,-8.468,2.368,5.301,2.499,-0.524,-0.167,69.3,-20.1,-44.85,1468.0
1787135173.9185522,-7.726,2.449,5.404,2.112,-0.305,-0.08,68.1,-18.45,-47.4,1468.0
1787135174.1223056,-9.424,2.873,5.849,-1.835,0.009,-0.031,69.6,-15.45,-43.05,1058.0
1787135174.1223316,-9.404,2.777,5.765,-2.064,-0.063,-0.024,68.1,-16.5,-43.65,1058.0
1787135174.1223428,-9.05,2.648,4.824,-2.524,-0.024,-0.07,68.7,-21.0,-45.0,1058.0
1787135174.3288183,-8.571,0.218,3.098,-3.148,-0.064,0.024,67.05,-36.6,-61.05,1058.0
1787135174.328843,-8.76,-0.182,2.772,-3.172,-0.187,0.067,66.6,-38.25,-65.4,1058.0
1787135174.5310674,-9.615,-3.735,-0.261,-2.279,0.152,0.771,70.95,-47.25,-93.6,1474.0
1787135174.5310926,-9.826,-3.622,-0.378,-1.887,0.042,0.743,72.15,-45.9,-95.55,1474.0
1787135174.738107,-9.515,-3.457,1.12,0.058,-0.068,0.025,76.2,-45.3,-102.0,236.0
1787135174.738132,-9.266,-3.199,1.233,0.156,-0.064,-0.004,74.85,-45.6,-102.15,365.0
1787135174.7381434,-9.009,-3.072,1.305,0.198,-0.012,-0.033,73.5,-45.0,-102.45,365.0
1787135174.943812,-9.385,-2.978,1.118,0.555,0.044,0.042,74.85,-45.6,-98.85,971.0
1787135174.943837,-9.369,-2.971,0.891,0.645,0.093,0.013,74.85,-47.55,-97.8,1008.0
1787135175.146218,-10.511,-1.554,0.093,2.815,0.416,-0.276,73.5,-45.75,-81.45,1208.0
1787135175.1462412,-11.454,-1.317,0.227,3.254,-0.011,-0.351,73.35,-45.6,-79.05,1461.0
1787135175.3529713,-7.98,2.186,2.859,3.208,-0.462,0.02,69.0,-29.55,-52.8,1461.0
1787135175.3532808,-8.952,2.083,3.986,3.092,-0.413,0.047,68.85,-23.1,-49.2,1461.0
1787135175.3532882,-9.234,2.78,4.666,2.99,-0.508,-0.011,69.75,-21.45,-48.0,1086.0
1787135175.5629263,-8.808,3.199,5.995,0.042,0.154,-0.107,67.5,-9.0,-42.0,1052.0
1787135175.562952,-9.005,3.251,5.804,-0.287,0.032,-0.084,68.7,-7.8,-40.65,1052.0
1787135175.5629637,-8.863,2.998,5.526,-0.564,0.038,-0.061,67.5,-7.8,-42.45,917.0
1787135175.7646933,-8.978,1.786,4.276,-2.746,0.097,0.046,67.35,-25.8,-49.65,1051.0
1787135175.7647183,-8.997,1.544,3.812,-2.908,0.007,0.067,66.6,-29.7,-49.65,1051.0
1787135175.7647297,-8.662,1.355,3.199,-3.085,-0.039,0.078,67.8,-31.95,-53.7,1051.0
1787135175.9667032,-8.672,-1.408,1.46,-2.891,0.136,0.192,68.25,-46.95,-79.95,1500.0
1787135175.9667299,-8.782,-1.712,1.235,-2.871,0.146,0.256,67.8,-47.1,-81.3,1500.0
1787135175.9667416,-9.44,-1.824,1.173,-2.856,0.011,0.331,69.6,-48.3,-87.9,1500.0
1787135176.1674776,-9.452,-3.682,-1.583,-1.173,0.155,0.573,74.7,-43.8,-105.75,1227.0
1787135176.1792974,-10.283,-3.924,-1.329,-0.626,0.118,0.425,77.25,-43.5,-106.05,1227.0
1787135176.1793232,-10.436,-3.452,-1.367,-0.321,0.005,0.318,76.95,-43.05,-107.55,1227.0
1787135176.3759716,-9.527,-3.129,1.451,0.299,-0.001,-0.078,77.1,-44.85,-106.65,1222.0
1787135176.3761578,-9.589,-2.993,1.252,0.236,0.073,-0.08,76.5,-42.6,-106.5,1222.0
1787135176.5785954,-9.96,-2.863,-0.804,1.827,0.179,-0.264,76.5,-45.0,-98.4,1300.0
1787135176.578621,-10.549,-2.909,-0.45,2.114,-0.085,-0.256,74.7,-45.3,-95.85,1300.0
1787135176.7855275,-8.435,-0.354,1.76,3.169,-0.22,-0.637,69.3,-40.95,-69.9,1556.0
1787135176.7855527,-8.475,-0.057,2.085,3.298,-0.12,-0.695,68.1,-37.5,-63.9,1556.0
1787135176.7855642,-8.504,0.237,2.339,3.505,-0.034,-0.67,68.7,-36.9,-62.7,1556.0
1787135176.9910963,-7.989,3.371,6.393,2.159,-0.588,0.139,66.0,-14.4,-44.25,1066.0
1787135176.991122,-7.898,3.716,7.606,1.705,-0.446,0.095,64.8,-12.75,-43.35,1066.0
1787135177.1902423,-8.971,2.835,5.873,-1.58,0.229,-0.061,64.65,-14.4,-43.5,1052.0
1787135177.1913233,-9.081,2.749,5.61,-1.771,0.137,-0.056,64.95,-15.9,-44.7,1082.0
1787135177.1952386,-8.792,2.516,5.353,-1.923,0.129,-0.04,65.55,-17.4,-43.65,1082.0
1787135177.401362,-8.566,-0.39,3.182,-2.912,-0.034,0.537,65.55,-43.2,-68.7,1082.0
1787135177.4013877,-8.753,-0.273,2.902,-2.898,0.002,0.521,66.3,-43.95,-73.2,1082.0
1787135177.4013994,-8.325,-0.294,2.672,-3.009,0.029,0.488,67.5,-46.95,-76.95,1513.0
1787135177.6041787,-10.64,-2.492,-1.884,-2.01,0.225,0.648,75.45,-45.0,-100.2,1406.0
1787135177.604207,-10.898,-2.986,-2.143,-1.518,0.268,0.604,75.15,-45.9,-101.1,1406.0
1787135177.6042187,-11.21,-3.579,-2.133,-1.032,0.211,0.435,77.1,-43.95,-103.35,1406.0
1787135177.8191159,-9.457,-3.431,1.355,0.27,-0.062,-0.054,78.0,-46.2,-105.0,1373.0
1787135177.8191416,-9.44,-3.244,1.36,0.353,0.067,-0.073,78.75,-45.75,-103.95,1373.0
1787135177.819153,-9.809,-2.981,1.202,0.424,0.061,-0.101,77.1,-45.15,-103.35,1373.0
1787135178.0152042,-10.087,-2.471,-0.606,1.618,-0.182,-0.194,77.85,-46.65,-96.0,1379.0
1787135178.0152273,-9.285,-2.114,-0.405,1.77,-0.163,-0.22,75.75,-46.95,-93.15,1379.0
1787135178.0152342,-9.115,-2.042,-0.371,1.954,0.002,-0.239,76.95,-47.7,-93.6,1379.0
1787135178.2195768,-9.4,0.816,1.7,2.946,0.139,-0.183,73.95,-40.65,-67.5,1490.0
1787135178.2196023,-9.855,0.594,2.035,3.148,-0.134,-0.247,73.65,-38.55,-64.65,1490.0
1787135178.2196138,-9.773,1.496,2.071,3.126,-0.249,-0.275,72.15,-35.85,-61.35,1490.0
1787135178.4235928,-8.1,3.029,5.643,2.896,-0.759,-0.266,70.35,-16.5,-44.4,1104.0
1787135178.4236631,-7.491,3.357,6.342,2.45,-0.466,-0.228,67.35,-15.45,-43.05,1104.0
1787135178.6284993,-8.569,3.206,6.134,-1.093,0.242,0.019,67.95,-9.75,-41.25,920.0
1787135178.6285865,-8.667,3.23,6.067,-1.284,0.193,0.046,69.75,-12.15,-42.45,920.0
1787135178.6285987,-8.93,3.443,5.878,-1.598,0.086,0.065,67.5,-12.9,-41.25,920.0
1787135178.8344502,-8.82,1.144,3.527,-3.15,-0.015,0.183,69.6,-31.95,-53.7,1075.0
1787135178.8344758,-8.633,0.903,3.247,-3.024,0.139,0.196,68.85,-32.85,-56.25,1075.0
1787135178.8344874,-8.902,1.049,2.761,-2.993,0.309,0.176,68.85,-35.85,-57.75,1075.0
1787135179.0385382,-8.933,-2.241,0.395,-1.568,0.103,0.309,73.35,-47.55,-90.75,1455.0
1787135179.0385635,-8.997,-2.373,0.256,-1.549,0.136,0.32,73.5,-46.5,-91.05,1389.0
1787135179.2435913,-10.101,-3.359,0.309,0.023,0.096,0.012,75.6,-46.35,-100.8,1323.0
1787135179.2436173,-10.254,-3.259,0.69,0.117,0.005,-0.023,75.0,-45.0,-100.5,1314.0
1787135179.243629,-9.972,-3.175,1.369,0.192,-0.061,-0.068,73.65,-46.35,-100.05,1314.0
1787135179.4481876,-9.843,-2.547,1.384,0.491,0.037,-0.162,75.15,-46.65,-96.3,1346.0
1787135179.4482071,-9.644,-2.576,1.183,0.589,0.044,-0.17,75.0,-46.5,-96.15,1346.0
1787135179.4482136,-9.787,-2.468,0.972,0.683,-0.01,-0.172,75.75,-46.95,-94.65,1360.0
1787135179.6515346,-8.799,-1.772,1.221,1.772,-0.201,-0.261,73.65,-46.35,-82.35,1389.0
1787135179.6515586,-9.052,-1.769,1.413,1.878,0.093,-0.266,73.65,-45.15,-80.55,1389.0
1787135179.65157,-9.146,-1.42,1.346,1.917,0.217,-0.303,73.35,-46.65,-79.05,1452.0
1787135179.8601525,-8.035,0.486,3.029,2.729,-0.402,-0.256,69.6,-36.3,-58.5,1452.0
1787135179.860192,-8.284,0.67,3.314,2.704,-0.172,-0.226,69.75,-31.8,-55.65,1452.0
1787135179.8601983,-8.334,0.606,3.608,2.687,-0.131,-0.118,70.2,-31.5,-55.35,1452.0
1787135180.0624638,-9.074,2.899,6.572,1.056,0.219,-0.006,67.5,-16.35,-44.7,1104.0
1787135180.0624883,-9.747,3.261,6.893,0.649,0.09,-0.032,68.55,-13.8,-43.05,1104.0
1787135180.0625002,-9.744,3.038,7.29,0.234,-0.056,-0.073,67.35,-13.8,-41.85,1046.0
1787135180.2670858,-8.413,2.715,5.772,-2.008,-0.043,0.047,67.5,-19.8,-45.75,1080.0
1787135180.2671118,-8.365,2.128,5.167,-2.221,0.081,0.134,68.1,-25.05,-47.7,1080.0
1787135180.267123,-8.296,1.753,4.985,-2.281,-0.043,0.219,66.6,-26.25,-48.45,1080.0
1787135180.471156,-8.866,0.46,3.467,-2.65,0.297,0.463,67.05,-39.75,-62.55,1080.0
1787135180.4711754,-9.498,0.558,3.206,-2.705,0.056,0.49,67.35,-42.15,-64.65,1080.0
1787135180.6721168,-9.251,-3.259,-0.529,-1.15,0.393,0.294,74.85,-47.1,-96.75,1390.0
1787135180.6721416,-9.816,-3.613,-0.601,-0.807,0.204,0.31,76.5,-45.75,-99.15,1390.0
1787135180.6849523,-10.027,-3.498,-0.517,-0.544,-0.061,0.305,74.25,-46.5,-100.2,1390.0
1787135180.8822381,-10.027,-3.443,-0.204,-0.369,-0.231,0.291,77.25,-46.95,-101.7,1390.0
1787135180.882264,-9.835,-3.685,0.251,-0.229,-0.241,0.271,76.5,-46.5,-99.9,1390.0
1787135180.882276,-9.649,-3.601,0.594,-0.113,-0.122,0.238,77.4,-45.9,-101.85,1392.0
1787135181.0899465,-9.984,-2.768,0.785,0.504,0.009,-0.132,75.45,-45.3,-100.2,1373.0
1787135181.0900595,-9.771,-2.842,0.462,0.628,0.081,-0.175,76.65,-45.9,-98.55,1373.0
1787135181.0900772,-9.685,-2.909,0.309,0.816,0.168,-0.19,76.65,-46.35,-98.1,1337.0
1787135181.291552,-9.301,-1.393,2.224,1.906,-0.341,-0.411,72.9,-46.35,-79.05,1477.0
1787135181.2915778,-9.112,-1.211,2.265,2.01,-0.182,-0.428,70.2,-45.3,-75.9,1477.0
1787135181.2915888,-9.256,-1.015,2.416,2.072,-0.092,-0.443,72.15,-43.95,-74.55,1477.0
1787135181.496931,-9.479,-0.302,2.444,2.079,-0.091,-0.462,69.6,-43.95,-70.65,1477.0
1787135181.4969566,-9.33,-0.318,2.677,2.057,-0.155,-0.475,69.6,-43.2,-70.65,1477.0
1787135181.4969683,-9.321,-0.223,2.768,2.089,-0.231,-0.482,70.2,-40.35,-66.75,1466.0
1787135181.6994228,-7.535,1.128,5.528,1.932,-0.368,-0.137,65.55,-24.75,-50.7,1466.0
1787135181.6994474,-7.875,1.592,6.033,1.813,-0.198,-0.134,63.6,-23.85,-48.45,1466.0
1787135181.6994588,-8.157,2.025,6.546,1.515,-0.07,-0.109,63.3,-23.55,-47.1,1466.0
1787135181.905916,-8.768,1.765,5.787,-2.004,0.035,0.068,67.2,-26.1,-49.05,1080.0
1787135181.9059405,-8.672,1.343,5.653,-2.207,0.159,0.045,66.75,-27.9,-49.8,1080.0
1787135181.9059517,-8.808,1.056,5.397,-2.337,0.19,0.014,65.4,-31.5,-52.05,1080.0
1787135182.1099162,-8.298,0.795,4.673,-2.633,-0.176,0.2,66.0,-33.45,-57.15,1080.0
1787135182.10994,-8.179,0.601,4.154,-2.775,-0.291,0.317,65.4,-36.9,-60.15,1080.0
1787135182.1099513,-7.642,0.196,3.809,-2.789,-0.213,0.391,63.9,-37.95,-60.75,1080.0
1787135182.3145344,-7.561,-0.215,3.78,-2.699,0.004,0.44,65.1,-41.25,-65.1,1080.0
1787135182.3145604,-7.262,-0.496,3.405,-2.551,0.204,0.482,65.1,-42.15,-67.2,1080.0
1787135182.517899,-9.603,-2.121,1.422,0.159,0.102,0.004,80.25,-45.75,-101.25,1403.0
1787135182.5179248,-9.881,-2.119,1.197,0.272,0.126,0.002,80.25,-47.25,-99.9,1403.0
1787135182.725656,-9.799,-1.841,0.254,1.24,-0.004,-0.201,79.65,-45.9,-93.0,1398.0
1787135182.7256823,-10.01,-1.662,0.026,1.407,-0.011,-0.198,79.5,-47.25,-92.1,1398.0
1787135182.725694,-10.051,-1.63,0.074,1.575,-0.099,-0.198,78.15,-47.1,-89.7,1398.0
1787135182.9291928,-8.724,0.299,1.729,2.446,-0.111,-0.454,75.75,-41.1,-69.3,1504.0
1787135182.929217,-9.012,0.311,2.066,2.506,-0.051,-0.482,75.15,-40.2,-66.15,1504.0
1787135182.9292285,-9.091,0.69,2.279,2.546,-0.044,-0.464,75.45,-37.65,-63.0,1504.0
1787135183.133571,-8.595,2.184,5.325,2.072,0.012,-0.238,71.85,-23.55,-48.9,1504.0
1787135183.1335957,-8.686,2.401,5.741,1.859,0.125,-0.201,69.75,-22.2,-46.8,1504.0
1787135183.33905,-9.129,2.734,7.032,-0.743,0.111,-0.032,70.2,-17.55,-45.75,443.0
1787135183.3390758,-9.129,2.61,6.883,-1.065,0.097,0.022,70.35,-16.95,-43.35,443.0
1787135183.3390884,-9.299,2.808,6.548,-1.379,0.02,0.026,70.95,-17.85,-46.5,443.0
1787135183.5441155,-8.693,1.776,3.433,-2.848,-0.168,0.192,70.2,-33.45,-57.15,988.0
1787135183.5441408,-8.284,1.338,3.292,-2.964,-0.114,0.214,68.7,-34.5,-57.9,988.0
1787135183.544152,-8.238,1.077,2.916,-3.069,0.064,0.231,69.0,-36.9,-60.45,988.0
1787135183.7481685,-9.967,-1.563,-0.572,-2.233,-0.045,0.548,73.65,-46.35,-85.35,1240.0
1787135183.7481937,-9.632,-1.554,-1.18,-2.203,-0.096,0.61,73.95,-46.2,-89.1,1240.0
1787135183.9541433,-10.056,-2.638,1.331,0.09,0.0,-0.044,80.55,-44.55,-100.5,242.0
1787135183.9541688,-9.924,-2.641,1.554,0.179,0.082,-0.084,79.65,-45.9,-101.1,242.0
1787135183.9541802,-9.917,-2.617,1.568,0.233,0.137,-0.113,79.05,-45.3,-101.25,311.0
1787135184.1581638,-10.417,-2.265,-0.239,1.0,0.151,-0.055,79.8,-46.95,-98.4,284.0
1787135184.158189,-10.185,-1.927,-0.168,1.175,-0.127,-0.057,77.55,-45.75,-93.6,284.0
1787135184.1582005,-9.816,-1.779,-0.019,1.315,-0.278,-0.08,78.15,-47.55,-93.45,401.0
1787135184.36361,-9.467,-0.517,1.607,2.242,-0.275,-0.292,76.2,-43.5,-76.35,1272.0
1787135184.363636,-9.483,-0.062,1.784,2.339,-0.368,-0.263,73.95,-44.25,-72.3,1272.0
1787135184.5667233,-7.942,1.729,3.44,2.55,-0.145,-0.339,72.0,-26.1,-52.8,1437.0
1787135184.566749,-8.167,1.671,3.893,2.532,0.045,-0.357,71.7,-26.4,-51.6,1437.0
1787135184.568425,-8.382,1.935,4.298,2.521,0.063,-0.308,71.85,-23.1,-47.1,1437.0
1787135184.7730713,-8.839,3.002,8.368,-0.208,0.418,-0.204,68.1,-17.4,-43.65,1066.0
1787135184.7730966,-8.933,3.177,8.066,-0.717,0.304,-0.216,68.7,-16.35,-44.7,1066.0
1787135184.7731078,-8.815,2.885,7.527,-1.179,0.218,-0.123,67.5,-16.35,-46.8,1066.0
1787135184.97708,-7.7,1.832,4.954,-2.42,-0.069,0.233,68.55,-30.45,-53.7,1001.0
1787135184.9771082,-7.958,2.236,4.693,-2.648,0.102,0.203,69.6,-32.85,-54.75,1001.0
1787135184.9771194,-7.738,1.956,4.187,-3.229,0.399,0.206,68.85,-35.55,-57.3,1001.0
1787135185.18376,-9.577,-1.41,-0.512,-2.007,0.269,0.425,73.2,-46.5,-81.75,1429.0
1787135185.1837854,-10.216,-1.235,-0.967,-1.695,0.281,0.5,74.25,-48.0,-85.5,1429.0
1787135185.1837976,-10.606,-1.662,-0.898,-1.493,0.08,0.5,73.5,-49.65,-86.25,1429.0
1787135185.3876128,-9.943,-2.715,0.644,-0.184,-0.134,0.284,77.55,-49.2,-94.65,1387.0
1787135185.387638,-9.919,-2.744,1.051,-0.099,-0.153,0.209,79.05,-48.45,-95.1,1387.0
1787135185.3876495,-9.835,-2.507,1.276,-0.093,-0.113,0.155,77.25,-46.95,-95.1,1387.0
1787135185.5920873,-9.85,-2.061,1.015,0.372,0.057,-0.154,77.25,-46.5,-95.1,1391.0
1787135185.5921125,-9.888,-2.179,0.991,0.518,0.026,-0.164,76.2,-47.25,-92.85,1391.0
1787135185.5921242,-9.826,-2.205,1.135,0.664,0.011,-0.18,76.35,-47.55,-92.7,1404.0
1787135185.7961242,-9.45,-0.962,1.477,1.687,-0.148,-0.176,74.7,-46.5,-79.2,1415.0
1787135185.796195,-9.708,-0.836,1.678,1.853,-0.225,-0.167,75.0,-45.3,-74.85,1470.0
1787135186.0015414,-8.765,0.883,4.137,1.982,-0.2,-0.384,70.35,-35.55,-56.25,1470.0
1787135186.001621,-8.914,0.979,4.597,2.033,-0.293,-0.369,69.6,-33.9,-53.7,1470.0
1787135186.0016336,-8.95,1.216,4.793,1.976,-0.432,-0.348,69.45,-31.8,-54.15,1470.0
1787135186.2065783,-7.961,1.741,6.754,0.093,0.127,-0.086,66.6,-21.15,-47.4,1109.0
1787135186.206604,-8.224,1.609,6.687,-0.12,0.176,-0.012,66.6,-22.8,-47.7,1109.0
1787135186.4093356,-8.456,1.623,5.49,-1.638,0.164,0.247,67.5,-29.55,-50.85,1109.0
1787135186.4093611,-8.882,1.571,5.306,-1.814,0.135,0.253,69.6,-32.4,-50.7,1109.0
1787135186.4093726,-9.21,1.214,5.035,-1.882,0.112,0.241,68.25,-32.25,-53.1,1109.0
1787135186.616088,-8.914,-0.12,3.397,-2.185,0.647,0.128,69.3,-42.9,-66.6,1109.0
1787135186.6161163,-9.299,-0.062,3.036,-2.092,0.524,0.132,67.2,-43.05,-68.25,1109.0
1787135186.6161277,-9.431,-0.22,2.835,-2.07,0.175,0.171,69.45,-45.0,-72.3,1539.0
1787135186.8200588,-9.448,-1.058,1.295,-1.664,0.318,0.744,73.2,-47.25,-91.05,1447.0
1787135186.8200843,-9.392,-1.188,0.941,-1.51,0.404,0.728,73.5,-48.45,-92.4,1447.0
1787135186.8201036,-9.831,-0.867,0.297,-1.468,0.579,0.674,77.4,-47.55,-96.3,1414.0
1787135187.025393,-10.484,-2.641,0.409,-0.099,-0.005,0.171,81.75,-45.0,-104.55,1392.0
1787135187.0254176,-10.479,-2.526,0.757,0.073,0.002,0.068,81.3,-45.75,-105.0,1392.0
1787135187.2282379,-10.348,-1.82,-0.218,0.939,0.178,-0.185,81.0,-46.5,-99.15,1388.0
1787135187.228263,-10.578,-1.59,-0.139,1.175,-0.063,-0.186,80.1,-45.9,-96.75,1388.0
1787135187.435044,-8.818,-0.232,2.368,1.932,-0.023,-0.612,73.2,-46.5,-78.9,1496.0
1787135187.4350684,-10.092,0.029,2.392,2.077,-0.278,-0.643,72.9,-45.9,-75.0,1496.0
1787135187.43508,-9.155,0.292,2.2,2.133,-0.553,-0.638,72.9,-44.4,-73.5,1496.0
1787135187.6410558,-7.369,1.827,4.47,2.471,-0.067,-0.373,68.85,-28.95,-51.45,1612.0
1787135187.641081,-7.479,2.011,4.906,2.308,0.112,-0.345,66.75,-29.1,-51.3,1612.0
1787135187.8438933,-8.119,2.483,7.8,-0.461,0.247,-0.036,64.8,-21.15,-45.6,1130.0
1787135187.8439188,-7.966,2.09,7.372,-0.726,0.198,0.044,65.7,-21.0,-48.0,1130.0
1787135188.0604086,-8.353,1.477,5.325,-2.07,-0.139,0.461,67.05,-33.6,-54.75,1130.0
1787135188.0604343,-8.66,1.42,5.461,-2.123,-0.041,0.465,68.1,-33.6,-55.5,1130.0
1787135188.2538962,-8.914,-0.045,1.149,-2.451,0.396,0.458,71.1,-47.1,-80.1,1432.0
1787135188.2540522,-8.909,-0.68,1.025,-2.308,0.521,0.412,73.2,-49.2,-83.7,1432.0
1787135188.254066,-9.306,-1.128,0.709,-2.064,0.657,0.4,73.65,-47.85,-85.65,1432.0
1787135188.4585793,-10.127,-2.186,0.611,-0.661,0.246,0.319,78.3,-45.75,-97.65,342.0
1787135188.4586053,-10.247,-2.454,0.85,-0.579,0.042,0.261,77.1,-46.65,-100.35,342.0
1787135188.6613133,-9.776,-2.241,0.833,0.137,0.339,-0.005,80.4,-45.9,-101.85,310.0
1787135188.6613393,-10.034,-2.2,0.958,0.254,0.317,-0.025,78.3,-46.5,-102.0,238.0
1787135188.6636643,-10.297,-2.121,0.972,0.301,0.139,-0.032,79.05,-45.75,-101.25,238.0
1787135188.8697586,-9.103,-1.137,1.032,1.329,0.015,-0.256,76.95,-47.7,-90.3,304.0
1787135188.8697836,-9.378,-1.166,0.807,1.434,0.061,-0.218,76.95,-47.7,-90.3,304.0
1787135188.8697948,-10.051,-1.01,0.941,1.608,-0.092,-0.253,76.35,-45.6,-86.4,304.0
1787135189.0738258,-7.743,0.158,2.696,1.952,-0.398,-0.342,72.15,-40.2,-68.4,1522.0
1787135189.0738506,-7.786,0.096,2.897,1.925,-0.125,-0.239,72.45,-41.1,-65.25,1522.0
1787135189.2790816,-7.834,1.7,6.687,0.784,0.177,0.038,69.0,-27.9,-52.8,1522.0
1787135189.2791064,-8.794,2.014,6.634,0.589,0.281,0.067,68.85,-28.95,-50.4,1522.0
1787135189.2791183,-9.167,2.143,6.515,0.372,0.142,0.095,68.85,-28.95,-50.4,1522.0
1787135189.4830492,-9.414,1.97,6.227,-1.174,-0.096,-0.076,69.0,-30.3,-52.05,1522.0
1787135189.4830747,-8.969,1.832,6.134,-1.393,-0.081,-0.075,68.25,-31.05,-53.1,1522.0
1787135189.4830859,-8.638,1.441,5.717,-1.573,0.032,-0.055,68.25,-32.55,-53.85,1522.0
1787135189.6916823,-8.255,-0.211,3.438,-1.902,0.17,0.122,69.75,-43.05,-69.3,1522.0
1787135189.6917074,-8.868,-0.12,3.239,-1.812,0.213,0.161,70.2,-43.8,-70.05,1522.0
1787135189.6917188,-9.29,-0.323,3.156,-1.754,-0.003,0.098,68.7,-45.75,-72.3,1522.0
1787135189.8913662,-8.432,-1.539,1.841,-1.617,0.344,0.19,70.8,-47.55,-85.35,1403.0
1787135189.8913906,-8.636,-1.86,1.729,-1.582,0.161,0.258,72.15,-48.6,-86.7,1403.0
1787135190.0982835,-9.761,-3.182,1.346,-0.372,0.095,0.1,73.5,-46.95,-99.9,1127.0
1787135190.098309,-10.171,-3.117,1.362,-0.291,0.081,0.083,74.1,-47.85,-100.35,1127.0
1787135190.098321,-10.147,-3.079,1.458,-0.209,-0.001,0.068,74.4,-47.85,-99.6,1127.0
1787135190.3031507,-8.93,-3.012,0.919,0.59,-0.022,0.004,75.45,-45.75,-99.45,682.0
1787135190.5060806,-10.142,-0.373,1.616,2.392,0.417,-0.351,73.2,-45.75,-76.35,1341.0
1787135190.506106,-10.671,0.129,1.425,2.492,0.337,-0.364,74.4,-44.85,-72.0,1341.0
1787135190.7130861,-8.622,2.14,5.669,2.32,-0.714,-0.212,68.85,-26.25,-50.7,1514.0
1787135190.713112,-8.349,2.595,6.249,1.725,-0.927,-0.205,66.0,-24.45,-47.55,1120.0
1787135190.7131233,-7.233,2.591,7.192,1.237,-0.686,-0.15,66.0,-24.45,-47.55,1120.0
1787135190.9176338,-8.406,2.076,5.966,-0.972,0.138,0.161,65.55,-21.9,-47.4,1086.0
1787135190.917658,-8.473,2.097,5.796,-1.099,0.14,0.189,68.25,-20.25,-47.55,1119.0
1787135191.1208885,-9.515,1.073,4.458,-2.23,0.337,0.431,68.55,-35.1,-57.0,1119.0
1787135191.1209126,-9.639,0.974,4.156,-2.284,-0.047,0.455,70.05,-35.55,-57.3,1119.0
1787135191.3242197,-9.294,0.244,0.649,-2.421,1.53,0.312,75.9,-45.15,-80.1,1494.0
1787135191.3242452,-9.725,0.405,-0.079,-2.57,1.665,0.426,76.2,-47.7,-81.75,1494.0
1787135191.32612,-10.673,-0.201,-0.905,-2.443,1.481,0.477,80.1,-47.1,-87.15,1047.0
1787135191.531955,-9.534,-2.521,-1.001,-0.301,-0.161,0.258,83.55,-45.3,-99.9,222.0
1787135191.5321548,-9.565,-1.999,-0.56,-0.222,-0.332,0.285,80.4,-44.85,-100.05,222.0
1787135191.5321636,-9.517,-1.958,-0.464,-0.249,-0.383,0.253,81.9,-46.65,-99.6,181.0
1787135191.7361326,-10.195,-1.724,0.678,0.205,-0.283,0.009,82.65,-43.95,-100.35,168.0
1787135191.7361586,-9.979,-1.776,0.785,0.33,-0.156,-0.067,82.35,-45.15,-98.1,168.0
1787135191.9410825,-9.855,-1.113,1.037,0.939,-0.358,-0.196,82.35,-45.15,-93.45,170.0
1787135191.9411063,-9.687,-1.154,1.116,1.049,-0.243,-0.17,80.85,-46.65,-92.7,170.0
1787135191.9411197,-9.661,-1.094,0.96,1.125,-0.167,-0.131,81.0,-46.2,-91.8,170.0
1787135192.1459613,-9.941,0.132,1.755,1.985,-0.121,-0.392,78.15,-40.95,-68.4,200.0
1787135192.1461627,-9.886,0.022,2.38,2.15,-0.435,-0.423,78.75,-41.55,-68.25,200.0
1787135192.1461804,-9.644,0.448,2.49,2.155,-0.76,-0.468,75.9,-40.2,-63.9,200.0
1787135192.3504987,-9.069,2.152,5.827,1.396,-0.01,-0.037,68.25,-29.85,-51.6,200.0
1787135192.3505242,-9.012,2.1,6.079,0.955,-0.302,0.001,70.05,-27.45,-50.4,200.0
1787135192.5536118,-9.455,1.42,5.784,-1.286,0.112,0.037,69.45,-30.3,-52.35,200.0
1787135192.553638,-9.313,1.465,5.337,-1.392,0.051,0.057,70.95,-33.0,-52.8,200.0
1787135192.7603266,-8.423,0.163,3.347,-2.413,0.044,0.352,70.05,-43.65,-70.95,1117.0
1787135192.7603517,-7.894,0.177,2.832,-2.357,0.255,0.4,71.25,-43.05,-73.65,1117.0
1787135192.760363,-7.647,-0.201,2.555,-2.337,0.549,0.464,72.6,-45.6,-77.25,1117.0
1787135192.9641573,-10.06,-0.86,-0.182,-1.306,0.518,0.714,79.5,-46.2,-95.1,202.0
1787135192.9642146,-10.757,-1.03,-0.06,-1.089,0.263,0.684,79.05,-46.95,-95.1,105.0
1787135192.9642217,-10.652,-0.883,0.077,-0.957,-0.01,0.662,80.55,-45.75,-96.9,105.0
1787135193.1694834,-10.709,-1.724,1.42,0.117,-0.338,0.14,84.15,-46.35,-98.85,72.0
1787135193.1695092,-10.429,-1.539,1.525,0.06,-0.31,0.038,84.45,-44.4,-100.35,58.0
1787135193.3741598,-10.032,-1.14,0.9,0.997,-0.017,-0.306,82.8,-45.75,-95.1,56.0
1787135193.3741853,-10.192,-0.917,0.816,1.121,-0.122,-0.333,81.75,-46.5,-92.1,74.0
1787135193.3741972,-10.001,-0.903,1.006,1.244,-0.156,-0.387,81.3,-46.2,-91.35,74.0
1787135193.579633,-8.562,-0.479,2.727,1.629,-0.333,-0.813,74.1,-43.65,-76.05,155.0
1787135193.579658,-8.404,-0.572,2.873,1.652,-0.053,-0.764,74.1,-44.85,-75.3,218.0
1787135193.579669,-8.677,-0.589,2.763,1.713,0.099,-0.683,73.95,-43.5,-73.35,218.0
1787135193.783584,-8.485,1.082,5.725,1.042,-0.109,-0.182,69.45,-32.55,-53.4,227.0
1787135193.7836092,-8.315,1.144,6.304,0.819,0.125,-0.173,70.8,-31.2,-54.45,227.0
1787135193.9886196,-9.258,0.946,5.902,-1.1,0.154,0.202,70.05,-31.65,-54.75,227.0
1787135193.9886446,-9.299,0.792,5.839,-1.189,0.055,0.206,69.45,-32.55,-54.15,227.0
1787135193.988703,-9.402,0.919,5.693,-1.331,-0.095,0.201,70.5,-34.2,-55.35,227.0
1787135194.1945484,-9.294,0.122,2.722,-1.96,-0.126,0.26,71.7,-43.8,-67.8,142.0
1787135194.1945739,-8.835,-0.022,2.212,-2.137,-0.183,0.311,72.75,-44.25,-69.3,142.0
1787135194.1945856,-8.495,-0.632,2.119,-2.135,0.089,0.338,72.45,-43.5,-71.85,142.0
1787135194.3972545,-9.258,-1.437,0.86,-0.952,0.429,0.513,76.35,-45.9,-89.4,147.0
1787135194.3972797,-9.086,-1.216,0.532,-0.954,0.499,0.568,78.0,-47.25,-91.35,147.0
1787135194.6040704,-10.281,-1.614,-0.754,-0.04,0.105,0.461,83.25,-45.3,-95.1,92.0
1787135194.604096,-10.573,-1.518,-0.464,0.097,-0.05,0.406,82.05,-46.95,-94.65,89.0
1787135194.6041074,-10.937,-1.614,0.244,0.219,-0.097,0.322,83.4,-45.15,-96.0,89.0
1787135194.8083303,-10.805,-0.742,1.159,1.162,-0.577,-0.424,81.75,-46.95,-85.8,99.0
1787135194.8083553,-10.223,-0.546,1.12,1.246,-0.647,-0.448,80.4,-44.85,-84.9,99.0
1787135194.8083665,-9.828,-0.39,1.52,1.363,-0.565,-0.419,81.3,-46.5,-82.2,99.0
1787135195.0129952,-8.617,-0.17,2.576,2.006,-0.068,-0.606,73.95,-41.1,-68.25,138.0
1787135195.0130184,-8.368,-0.036,2.533,2.037,-0.144,-0.606,72.9,-41.25,-67.65,138.0
1787135195.2155945,-9.038,1.788,5.578,1.369,0.129,-0.205,70.35,-28.95,-51.75,138.0
1787135195.21562,-8.674,1.571,6.045,1.133,0.002,-0.109,70.95,-27.15,-50.55,138.0
1787135195.422545,-8.018,2.035,4.987,-2.282,-0.12,0.503,70.8,-32.85,-55.05,138.0
1787135195.4225693,-8.349,1.978,4.652,-2.379,-0.032,0.533,69.75,-33.75,-56.1,138.0
1787135195.4225812,-8.425,1.781,4.348,-2.4,0.021,0.559,70.8,-36.6,-58.5,138.0
1787135195.6266255,-9.594,-0.148,0.764,-2.225,0.602,0.455,76.95,-46.5,-84.0,179.0
1787135195.6266499,-9.536,-0.697,0.615,-2.208,0.49,0.462,78.0,-46.5,-85.5,134.0
1787135195.6266613,-9.361,-1.255,0.457,-2.031,0.465,0.466,78.9,-47.1,-88.65,134.0
1787135195.8340805,-8.775,-1.403,0.048,-0.65,0.548,0.633,82.35,-47.1,-100.35,134.0
1787135195.834107,-11.016,-1.063,0.103,-0.451,0.455,0.597,84.0,-43.8,-100.5,134.0
1787135195.8341181,-11.353,-1.065,0.244,-0.348,0.027,0.476,83.7,-45.6,-101.85,88.0
1787135196.0339744,-10.681,-1.099,1.279,0.256,0.102,-0.152,87.15,-44.85,-100.8,84.0
1787135196.0339985,-10.594,-1.03,1.334,0.308,0.004,-0.185,85.05,-45.75,-102.75,84.0
1787135196.241565,-9.752,-0.376,0.84,1.244,-0.204,-0.364,82.05,-46.5,-93.9,117.0
1787135196.2415893,-9.847,-0.362,0.979,1.355,-0.244,-0.406,81.3,-47.25,-92.1,117.0
1787135196.2416008,-9.886,-0.251,1.087,1.467,-0.256,-0.435,81.15,-44.85,-87.9,117.0
1787135196.4459932,-8.789,0.148,2.806,1.832,-0.173,-0.452,77.25,-43.05,-72.3,151.0
1787135196.446019,-8.894,0.433,3.036,1.817,-0.193,-0.419,76.95,-42.3,-72.3,151.0
1787135196.6515853,-8.835,1.355,5.614,0.971,-0.09,-0.052,72.45,-32.25,-58.2,67.0
1787135196.651611,-8.959,1.171,5.904,0.722,-0.103,-0.044,72.75,-34.5,-56.85,67.0
1787135196.651624,-9.246,1.369,6.045,0.506,-0.154,0.005,72.0,-34.2,-57.15,67.0
1787135196.856899,-9.776,0.986,4.331,-0.946,-0.081,0.029,72.15,-34.35,-58.8,70.0
1787135196.8569224,-9.448,0.771,4.271,-0.966,-0.095,0.005,74.1,-35.1,-58.8,70.0
1787135196.8569338,-9.416,0.68,4.389,-0.996,-0.056,-0.001,71.7,-35.7,-59.7,70.0
1787135197.061086,-8.502,-0.29,3.634,-1.401,-0.391,0.1,73.65,-44.85,-72.0,67.0
1787135197.2666054,-8.368,-0.532,3.977,-1.429,-0.089,0.29,71.85,-44.85,-75.3,171.0
1787135197.266631,-8.437,-0.462,4.125,-1.357,0.022,0.36,74.25,-47.25,-75.6,171.0
1787135197.2666423,-8.648,-0.378,4.173,-1.338,0.018,0.458,72.6,-47.1,-78.3,171.0
1787135197.4667165,-9.072,0.069,4.171,-1.424,-0.16,0.502,72.6,-48.3,-78.6,171.0
1787135197.470073,-9.026,0.292,3.515,-1.552,-0.313,0.511,73.95,-48.0,-81.0,171.0
1787135197.4700973,-8.495,-0.002,3.381,-1.572,-0.197,0.537,74.85,-47.55,-82.65,328.0
1787135197.6740859,-10.25,-2.179,0.287,0.134,0.039,-0.001,82.8,-43.05,-111.3,87.0
1787135197.6741111,-10.278,-2.162,0.769,0.303,-0.042,-0.037,82.5,-41.55,-111.9,87.0
1787135197.8816764,-10.4,-2.131,1.403,0.402,-0.194,-0.089,82.35,-41.7,-112.2,106.0
1787135197.8817022,-10.127,-1.863,1.815,0.398,-0.29,-0.122,83.4,-43.95,-109.95,106.0
1787135197.8817136,-9.651,-1.944,2.152,0.339,-0.209,-0.142,83.4,-41.7,-110.25,106.0
1787135198.0852327,-9.254,-1.954,2.203,0.289,-0.002,-0.123,82.8,-43.05,-109.35,106.0
1787135198.0852578,-9.337,-1.925,1.741,0.268,0.199,-0.13,82.8,-43.05,-109.35,106.0
1787135198.0852692,-9.658,-1.932,1.307,0.283,0.354,-0.114,82.65,-43.65,-108.45,146.0
1787135198.2903984,-9.529,1.86,2.897,3.406,-0.268,-0.739,72.45,-35.25,-60.75,249.0
1787135198.290424,-8.775,2.241,3.187,3.267,-0.078,-0.764,73.2,-32.25,-58.2,249.0
1787135198.4930437,-8.65,2.246,5.535,2.922,-0.304,-0.628,71.55,-30.15,-53.7,249.0
1787135198.4930685,-8.018,2.646,6.079,2.544,-0.553,-0.522,70.5,-28.35,-50.85,249.0
1787135198.6990955,-8.756,-0.132,0.376,-2.648,-0.271,0.646,74.7,-49.2,-85.05,1470.0
1787135198.6991205,-8.104,-0.718,0.239,-2.607,0.136,0.628,76.5,-45.75,-88.8,1470.0
1787135198.6991324,-9.057,-0.972,0.17,-2.332,0.743,0.679,77.55,-46.95,-92.1,1470.0
1787135198.9044454,-10.312,-0.766,-0.029,-1.951,0.832,0.644,78.6,-45.6,-95.55,1470.0
1787135198.9044743,-10.716,-0.187,-0.445,-1.758,0.392,0.612,81.15,-46.65,-97.8,1470.0
1787135198.9044857,-10.475,0.132,-0.639,-1.762,-0.121,0.593,79.35,-46.35,-100.8,132.0
1787135199.1071465,-9.993,-0.551,-0.618,-1.666,-0.112,0.523,81.0,-45.0,-101.25,132.0
1787135199.1071725,-9.618,-0.704,-0.663,-1.421,0.021,0.449,80.55,-45.0,-103.95,132.0
1787135199.107184,-9.809,-1.034,-0.855,-1.106,0.233,0.455,84.0,-42.6,-105.75,132.0
1787135199.3144588,-9.718,-1.267,0.864,1.727,-0.432,-0.64,79.35,-47.1,-92.7,139.0
1787135199.3144841,-9.608,-1.013,0.939,1.939,-0.73,-0.64,79.05,-48.0,-92.4,173.0
1787135199.3144956,-9.436,-0.613,1.336,2.099,-0.985,-0.652,78.9,-46.65,-89.4,173.0
1787135199.5181396,-8.741,-0.326,1.611,2.166,-1.103,-0.703,76.65,-46.65,-87.45,173.0
1787135199.5181656,-8.408,-0.182,1.942,2.166,-1.072,-0.729,73.95,-45.3,-82.5,173.0
1787135199.518177,-7.511,-0.285,2.337,2.181,-0.833,-0.656,74.7,-46.2,-81.75,173.0
1787135199.723627,-7.331,0.072,2.545,2.17,-0.547,-0.568,73.65,-44.4,-73.95,216.0
1787135199.7236524,-7.714,0.505,3.16,2.247,-0.293,-0.475,71.1,-42.9,-70.95,216.0
1787135199.9285538,-7.946,1.324,6.354,-1.893,0.285,0.122,67.35,-37.05,-59.55,266.0
1787135199.9285786,-7.606,1.161,5.945,-2.042,0.61,0.138,68.1,-36.6,-58.5,266.0
1787135199.9285898,-8.219,0.998,5.602,-2.122,0.728,0.142,70.8,-37.8,-61.8,266.0
1787135200.1302092,-8.689,0.977,5.198,-2.255,0.537,0.123,69.75,-39.6,-64.2,266.0
1787135200.3379884,-7.496,0.244,3.314,-2.919,0.071,0.275,71.55,-45.15,-72.75,324.0
1787135200.3381684,-7.254,-0.132,2.765,-2.866,0.541,0.329,70.95,-45.3,-75.9,324.0
1787135200.5406635,-10.628,-1.707,1.341,0.167,0.098,-0.065,84.15,-42.9,-103.65,90.0
1787135200.5406897,-10.594,-1.664,1.626,0.218,-0.023,-0.153,84.9,-43.95,-104.1,90.0
1787135200.7480829,-9.843,-1.475,1.693,0.205,-0.085,-0.202,83.7,-43.95,-102.6,90.0
1787135200.74811,-9.644,-1.496,1.645,0.189,0.035,-0.206,83.1,-45.15,-102.6,104.0
1787135200.7481215,-9.57,-1.405,1.635,0.2,0.12,-0.197,83.55,-44.55,-101.25,104.0
1787135200.9521642,-9.632,-1.393,1.623,0.247,0.106,-0.2,82.8,-45.3,-101.7,104.0
1787135200.9521923,-9.548,-1.338,1.587,0.278,-0.017,-0.193,83.25,-45.75,-101.7,104.0
1787135200.9521987,-9.313,-1.329,1.559,0.289,-0.158,-0.15,83.25,-46.5,-100.95,104.0
1787135201.1591265,-10.159,0.024,1.314,2.559,-0.617,-0.524,79.8,-42.3,-76.95,189.0
1787135201.1591527,-9.184,0.177,1.913,2.712,-0.792,-0.583,78.9,-41.25,-70.2,189.0
1787135201.3616962,-9.139,0.354,2.334,2.812,-0.661,-0.68,77.55,-37.65,-66.0,189.0
1787135201.3617218,-8.734,0.491,2.569,2.904,-0.504,-0.735,77.55,-37.65,-66.0,189.0
1787135201.3617332,-8.432,0.747,3.05,2.94,-0.35,-0.756,75.45,-35.25,-61.5,189.0
1787135201.567645,-8.411,0.864,3.373,2.891,-0.227,-0.768,75.45,-35.25,-61.5,189.0
1787135201.567671,-8.286,0.936,3.824,2.761,-0.253,-0.653,73.35,-30.15,-55.8,189.0
1787135201.5676818,-8.437,1.405,4.647,2.668,-0.445,-0.594,73.35,-30.15,-55.8,189.0
1787135201.7706847,-9.258,0.594,2.619,-2.642,0.232,0.233,75.0,-43.8,-72.6,120.0
1787135201.77071,-8.904,0.297,2.569,-2.504,-0.122,0.236,75.15,-46.35,-75.75,120.0
1787135201.9765294,-8.078,0.39,2.085,-2.534,-0.225,0.467,75.15,-45.6,-76.8,120.0
1787135201.9765556,-7.288,0.503,1.295,-2.642,0.198,0.6,75.15,-45.15,-80.85,120.0
1787135201.9766152,-7.424,0.326,0.529,-2.685,0.696,0.551,77.1,-45.9,-84.6,207.0
1787135202.18006,-10.235,-0.649,0.493,-2.495,0.619,0.521,78.0,-46.5,-84.75,207.0
1787135202.1800857,-10.721,-0.795,-0.129,-2.126,0.152,0.534,79.65,-47.85,-89.4,207.0
1787135202.1800976,-9.646,-0.651,-0.448,-1.804,-0.149,0.616,78.0,-46.5,-91.35,207.0
1787135202.3886921,-10.417,-1.48,0.491,0.602,-0.299,-0.293,82.65,-44.4,-99.6,109.0
1787135202.3887172,-10.027,-1.671,0.39,0.723,-0.419,-0.321,82.05,-45.75,-96.9,109.0
1787135202.3887286,-9.629,-1.676,0.357,0.867,-0.395,-0.345,82.8,-45.0,-97.95,118.0
1787135202.588278,-9.833,-1.815,0.596,1.111,-0.311,-0.347,81.6,-45.15,-95.55,118.0
1787135202.5883038,-10.429,-1.475,0.702,1.33,-0.461,-0.376,80.85,-46.35,-94.2,118.0
1787135202.7952147,-6.819,1.709,6.543,1.327,0.567,-0.193,65.4,-29.55,-50.85,1090.0
1787135202.795253,-7.937,1.63,6.694,1.092,0.731,-0.143,67.05,-28.5,-50.4,1090.0
1787135202.795264,-8.715,1.937,6.946,0.906,0.698,-0.054,66.0,-26.4,-49.8,1090.0
1787135203.000517,-9.23,1.879,6.795,-1.222,0.363,-0.006,68.25,-28.35,-49.8,1090.0
1787135203.0005412,-9.098,1.791,6.426,-1.48,0.228,0.037,67.8,-28.2,-49.95,1090.0
1787135203.2036252,-8.586,0.141,3.876,-2.252,-0.157,0.261,67.8,-40.95,-65.4,141.0
1787135203.2036505,-8.308,0.259,3.417,-2.394,-0.372,0.283,68.1,-40.5,-67.65,141.0
1787135203.4101036,-9.787,-2.033,1.211,-1.602,0.774,0.569,73.95,-48.0,-92.85,129.0
1787135203.4101386,-10.12,-1.805,0.735,-1.593,0.357,0.55,74.1,-48.6,-94.5,129.0
1787135203.4101455,-9.637,-2.483,0.658,-1.552,0.104,0.529,75.0,-47.7,-97.65,129.0
1787135203.6144793,-10.252,-2.397,1.173,0.239,0.181,0.055,79.8,-45.0,-102.45,139.0
1787135203.614505,-10.283,-2.433,1.111,0.337,0.208,-0.008,78.9,-45.9,-101.55,139.0
1787135203.614516,-10.642,-2.31,1.085,0.436,0.114,-0.071,80.55,-45.75,-100.95,139.0
1787135203.8182347,-10.372,-1.674,0.457,1.536,-0.17,-0.35,77.4,-47.85,-92.7,133.0
1787135203.8182602,-10.276,-1.549,0.498,1.675,-0.267,-0.42,77.55,-47.7,-92.4,133.0
1787135204.0234084,-8.727,1.063,2.409,2.751,-0.215,-0.639,73.2,-38.85,-64.2,134.0
1787135204.2294927,-7.685,2.789,7.223,1.412,-0.01,-0.23,65.85,-18.9,-45.9,1118.0
1787135204.229519,-8.021,2.753,7.894,1.013,-0.001,-0.156,66.75,-18.3,-45.0,1118.0
1787135204.2295306,-8.289,3.045,8.124,0.523,-0.096,-0.075,66.6,-17.7,-45.6,1118.0
1787135204.4336123,-9.479,1.762,4.942,-1.69,0.122,0.153,68.25,-21.45,-46.8,1088.0
1787135204.4336383,-9.294,1.717,4.549,-1.826,-0.1,0.2,69.3,-23.1,-49.95,1088.0
1787135204.6388602,-7.989,0.692,4.056,-2.455,-0.172,0.569,69.3,-39.75,-63.9,115.0
1787135204.6388867,-8.145,0.611,3.496,-2.567,0.169,0.594,69.3,-39.75,-65.4,94.0
1787135204.6389103,-8.617,0.254,3.084,-2.569,0.401,0.579,70.2,-41.85,-68.55,94.0
1787135204.843249,-10.683,-2.813,-1.609,-1.373,0.162,0.52,77.1,-45.6,-91.2,197.0
1787135204.843275,-10.376,-3.129,-1.642,-0.98,0.063,0.412,77.25,-45.75,-91.8,133.0
1787135204.8432865,-10.369,-3.069,-1.403,-0.425,0.152,0.225,78.6,-45.6,-93.45,133.0
1787135205.046639,-9.44,-1.659,4.29,0.171,0.114,-0.072,78.3,-46.5,-89.1,139.0
1787135205.046665,-9.766,-1.326,4.729,-0.029,0.014,-0.084,76.5,-46.5,-88.05,164.0
1787135205.0466766,-9.546,-1.061,5.112,-0.222,-0.102,-0.077,77.55,-48.0,-89.55,164.0
1787135205.2540793,-8.562,-0.558,6.407,-2.182,-0.437,0.181,74.25,-48.0,-101.7,81.0
1787135205.2541049,-8.454,-0.972,5.629,-2.329,-0.078,0.315,76.5,-44.55,-105.3,81.0
1787135205.254116,-8.921,-0.807,4.966,-2.377,0.068,0.428,77.55,-45.75,-107.25,81.0
1787135205.4581463,-8.811,0.294,2.09,-2.981,0.197,0.616,82.65,-31.65,-125.4,46.0
1787135205.4581769,-9.258,0.962,1.417,-3.1,0.072,0.684,83.4,-27.75,-127.2,46.0
1787135205.458183,-8.861,0.893,0.522,-3.102,0.153,0.844,85.65,-25.05,-131.25,46.0
1787135205.6636257,-9.22,-1.887,-2.571,-1.738,-0.248,0.425,90.9,-3.0,-136.05,46.0
1787135205.663651,-10.07,-1.949,-2.679,-1.385,0.138,0.393,91.8,-2.85,-136.2,46.0
1787135205.86609,-10.499,-2.653,-3.122,0.968,0.046,-0.187,95.4,-0.75,-138.3,43.0
1787135205.8661158,-10.415,-2.246,-2.938,1.203,0.125,-0.273,93.15,-0.75,-136.5,43.0
1787135206.072687,-9.555,-0.134,-0.697,2.57,-0.097,-0.603,91.65,-17.7,-129.45,41.0
1787135206.0727124,-9.299,-0.034,-0.512,2.562,0.019,-0.619,88.8,-20.25,-130.35,41.0
1787135206.0727243,-10.297,-0.828,0.505,2.739,-0.018,-0.566,90.3,-23.7,-127.5,41.0
1787135206.2764037,-8.42,0.869,3.457,3.203,0.024,-0.565,81.3,-42.6,-105.0,47.0
1787135206.27643,-7.997,1.302,3.357,3.0,0.294,-0.543,81.75,-43.05,-105.75,47.0
1787135206.2764416,-8.32,1.12,3.95,2.988,0.321,-0.504,80.4,-44.4,-99.6,47.0
1787135206.4806707,-8.248,1.97,6.687,1.546,-0.211,-0.249,75.0,-45.75,-75.9,107.0
1787135206.4806967,-7.937,1.513,6.883,1.122,0.039,-0.193,76.2,-43.05,-74.1,107.0
1787135206.6866028,-9.852,0.694,5.751,-0.777,0.073,0.04,77.25,-44.25,-74.1,73.0
1787135206.686629,-9.498,0.749,5.76,-1.001,-0.235,0.048,77.4,-44.85,-74.55,73.0
1787135206.6866405,-9.275,0.804,5.78,-1.195,-0.314,0.068,76.2,-43.8,-75.6,73.0
1787135206.8919587,-9.428,1.389,3.486,-2.769,-0.375,0.476,79.65,-45.6,-101.85,57.0
1787135206.891984,-9.194,1.082,3.443,-2.882,-0.592,0.599,80.4,-42.9,-105.15,57.0
1787135206.891995,-8.131,0.709,3.316,-2.861,-0.314,0.719,82.8,-40.65,-108.6,58.0
1787135207.0987551,-10.029,-0.16,0.012,-2.914,0.471,0.635,88.8,-22.95,-127.8,49.0
1787135207.0987804,-10.678,-0.639,-0.287,-2.786,0.345,0.543,92.1,-18.75,-129.3,49.0
1787135207.098792,-10.635,-1.176,-0.512,-2.587,-0.014,0.468,90.6,-15.9,-129.6,33.0
1787135207.3019156,-9.764,-2.392,-2.109,-0.747,-0.141,0.335,95.7,-1.8,-132.45,18.0
1787135207.3019419,-10.317,-3.029,-1.712,-0.525,-0.05,0.326,94.95,-0.75,-131.25,18.0
1787135207.3019543,-10.58,-3.055,-1.599,-0.285,-0.063,0.227,95.4,0.3,-133.5,34.0
1787135207.5056648,-10.309,-2.468,-1.211,0.578,0.304,-0.135,94.8,-0.45,-133.65,31.0
1787135207.5056908,-10.329,-2.526,-1.262,0.77,0.316,-0.181,95.1,-2.85,-134.85,31.0
1787135207.5057027,-10.439,-2.222,-1.262,0.974,0.297,-0.223,96.3,-2.1,-133.65,31.0
1787135207.7137997,-9.84,-0.512,-0.038,2.176,-0.193,-0.493,93.9,-16.2,-129.45,21.0
1787135207.713825,-9.498,-0.67,0.318,2.256,-0.165,-0.524,92.4,-17.4,-127.65,21.0
1787135207.7138362,-9.51,-0.745,0.68,2.435,-0.094,-0.513,91.8,-20.55,-127.8,21.0
1787135207.913619,-9.512,0.716,3.089,2.98,-0.282,-0.627,85.05,-39.6,-108.6,28.0
1787135207.9136443,-8.894,0.781,3.247,2.881,-0.296,-0.631,84.3,-41.1,-106.5,28.0
1787135208.1205156,-7.652,1.341,7.161,1.568,0.063,-0.632,76.2,-46.5,-82.95,68.0
1787135208.1205423,-8.14,0.761,8.234,1.332,0.383,-0.507,76.35,-45.9,-82.35,68.0
1787135208.1205537,-8.511,0.809,8.543,1.044,0.437,-0.441,75.9,-46.35,-80.55,68.0
1787135208.3241522,-9.06,0.795,7.441,-1.76,0.134,0.509,75.45,-45.3,-84.0,59.0
1787135208.3241768,-9.127,0.63,6.929,-1.981,-0.087,0.506,77.25,-46.2,-87.0,59.0
1787135208.3241882,-8.777,0.788,6.347,-2.161,-0.074,0.588,77.25,-47.25,-89.1,59.0
1787135208.536137,-9.517,0.204,1.015,-2.832,0.067,0.018,86.55,-31.8,-122.25,48.0
1787135208.5361633,-8.54,-0.352,0.57,-2.791,0.215,0.189,85.65,-30.15,-121.65,35.0
1787135208.7351394,-9.785,-0.539,-0.711,-2.089,-0.444,0.331,91.65,-6.9,-131.25,28.0
1787135208.735164,-10.01,-0.812,-1.283,-2.053,-0.713,0.378,92.1,-5.1,-132.15,44.0
1787135208.7351751,-8.863,-0.725,-1.882,-1.799,-0.381,0.679,93.15,-1.5,-132.45,44.0
1787135208.9395688,-10.932,-2.394,-1.372,0.125,0.049,-0.058,96.3,4.05,-134.4,38.0
1787135208.939594,-10.606,-2.265,-1.211,0.1,-0.07,-0.132,93.6,3.6,-134.4,38.0
1787135209.1430817,-10.082,-1.528,-1.329,1.179,0.079,-0.288,95.55,-2.1,-132.6,32.0
1787135209.1431043,-10.376,-1.547,-1.049,1.457,-0.027,-0.359,93.9,-2.25,-133.2,40.0
1787135209.3467216,-9.522,-0.326,0.194,2.361,-0.26,-0.457,93.15,-18.15,-127.65,43.0
1787135209.3467476,-9.45,-0.275,0.553,2.394,-0.372,-0.556,91.95,-20.85,-126.15,43.0
1787135209.348589,-9.167,-0.539,1.35,2.576,-0.343,-0.519,92.4,-22.8,-125.7,38.0
1787135209.5549326,-9.014,0.692,3.232,3.182,-0.198,-0.44,84.3,-42.6,-99.9,42.0
1787135209.5549583,-8.794,0.778,3.421,3.201,-0.285,-0.486,83.55,-41.1,-100.2,42.0
1787135209.5549698,-8.133,1.255,3.237,3.014,-0.074,-0.415,83.1,-43.65,-93.75,48.0
1787135209.758618,-8.547,1.946,6.218,2.206,-0.22,-0.344,78.15,-45.15,-76.5,41.0
1787135209.758643,-8.638,1.69,6.735,1.938,-0.183,-0.268,79.35,-43.95,-73.5,41.0
1787135209.9641445,-9.426,1.894,6.371,-1.92,0.439,0.237,77.1,-45.15,-73.95,60.0
1787135209.9642274,-9.639,1.98,5.995,-2.161,0.216,0.228,79.35,-43.2,-76.05,60.0
1787135209.9642394,-9.464,1.7,5.672,-2.394,-0.006,0.194,79.05,-43.8,-78.45,53.0
1787135210.1680684,-8.624,0.237,2.531,-3.004,-0.243,0.601,83.7,-38.25,-112.2,26.0
1787135210.1680946,-7.788,0.026,2.224,-2.953,0.352,0.798,86.4,-34.35,-116.55,26.0
1787135210.1681063,-8.507,-0.06,2.016,-2.84,0.798,0.871,86.25,-33.45,-117.15,26.0
1787135210.371338,-9.201,-0.187,-0.563,-2.296,-0.184,0.564,91.35,-9.75,-130.05,8.0
1787135210.3713646,-8.504,-0.318,-0.843,-2.238,-0.191,0.821,93.9,-9.15,-130.2,8.0
1787135210.371377,-9.064,-1.164,-1.202,-1.938,0.062,1.054,94.2,-5.4,-131.7,8.0
1787135210.576167,-11.159,-0.613,-1.504,-0.486,0.112,0.332,96.3,5.55,-132.9,12.0
1787135210.5761936,-11.669,-0.678,-1.298,-0.435,-0.026,0.202,97.35,5.1,-131.4,12.0
1787135210.7827725,-11.073,-0.472,-1.132,0.769,-0.125,-0.438,97.8,4.8,-132.15,27.0
1787135210.7827985,-10.786,-0.548,-1.07,0.976,-0.012,-0.483,97.35,2.4,-132.15,27.0
1787135210.7828104,-10.884,-0.347,-1.089,1.153,0.113,-0.548,96.45,1.05,-132.45,27.0
1787135210.986877,-9.416,-0.704,0.259,2.303,-0.051,-0.893,94.65,-14.55,-127.95,13.0
1787135210.986904,-9.471,0.048,0.266,2.41,-0.065,-0.832,92.1,-16.35,-127.8,13.0
1787135210.9869106,-9.064,-0.352,0.479,2.508,-0.127,-0.922,93.6,-19.05,-124.5,13.0
1787135211.194096,-7.987,0.29,2.631,3.422,-0.112,-0.495,87.0,-37.2,-106.5,31.0
1787135211.194122,-7.934,0.704,2.875,3.511,-0.009,-0.424,85.5,-39.9,-102.0,31.0
1787135211.1941335,-8.507,1.341,3.232,3.522,0.003,-0.42,84.45,-42.15,-100.05,31.0
1787135211.3964107,-8.978,1.717,6.888,1.471,0.144,-0.428,78.15,-42.9,-77.25,32.0
1787135211.3964355,-8.732,1.214,7.077,1.265,0.415,-0.409,79.35,-43.2,-75.0,41.0
1787135211.3964467,-9.153,1.08,7.295,1.1,0.416,-0.404,78.75,-42.6,-72.6,41.0
1787135211.6015365,-8.993,0.345,4.506,-0.505,0.063,0.052,78.0,-43.8,-74.1,29.0
1787135211.601562,-9.136,0.342,4.396,-0.585,-0.136,0.06,78.75,-42.3,-72.6,46.0
1787135211.6015737,-9.026,0.206,4.513,-0.664,-0.236,0.084,78.6,-43.65,-73.5,46.0
1787135211.8058975,-9.78,0.663,5.073,-2.709,-0.51,0.119,78.9,-45.6,-95.25,72.0
1787135211.805923,-8.607,0.627,4.733,-2.847,-0.392,0.238,79.8,-44.55,-97.95,72.0
1787135212.0110114,-9.953,-0.213,1.444,-3.177,-0.722,0.291,83.7,-27.75,-123.15,30.0
1787135212.0110352,-9.093,-0.036,1.302,-3.315,-0.991,0.351,87.3,-23.7,-126.3,30.0
1787135212.0110464,-8.332,-0.611,1.125,-3.174,-0.621,0.525,87.3,-23.7,-128.55,30.0
1787135212.2168102,-10.862,-1.044,-1.726,-1.892,0.117,0.606,95.4,2.7,-133.2,21.0
1787135212.2168357,-10.738,-0.555,-2.284,-1.794,-0.327,0.478,95.4,5.7,-130.2,21.0
1787135212.2168472,-10.116,-1.733,-2.284,-1.463,-0.325,0.359,95.55,6.75,-131.85,21.0
1787135212.4204595,-10.544,-2.83,-2.593,0.048,-0.044,-0.132,97.8,11.7,-130.35,25.0
1787135212.420486,-9.969,-2.938,-2.212,0.192,0.083,-0.127,98.25,12.75,-131.25,25.0
1787135212.626081,-9.771,-1.901,-1.408,1.359,0.2,-0.16,97.05,7.05,-131.4,23.0
1787135212.626105,-9.68,-1.549,-1.314,1.545,0.14,-0.2,94.65,3.75,-130.95,23.0
1787135212.6261165,-10.001,-1.573,-1.027,1.725,-0.004,-0.252,95.7,2.7,-132.0,23.0
1787135212.8305843,-9.349,-0.611,1.31,2.541,0.049,-0.314,91.05,-17.1,-127.05,25.0
1787135212.830609,-9.668,-0.706,1.496,2.634,0.051,-0.316,92.1,-21.0,-125.25,25.0
1787135212.8306208,-9.591,-0.508,1.769,2.673,-0.021,-0.358,91.35,-22.2,-124.8,25.0
1787135213.0346243,-9.069,-0.39,3.203,2.42,-0.189,-0.144,87.0,-40.35,-107.25,37.0
1787135213.0346496,-8.478,0.304,3.132,2.482,-0.162,-0.159,85.65,-41.7,-104.85,37.0
1787135213.034661,-8.464,0.443,3.223,2.455,0.012,-0.218,86.7,-40.95,-102.6,37.0
1787135213.2415576,-9.596,1.199,5.899,1.416,-0.02,-0.222,82.05,-43.8,-83.7,34.0
1787135213.2415822,-9.685,0.967,6.024,1.122,-0.132,-0.212,82.65,-44.4,-80.85,34.0
1787135213.2415938,-9.39,0.91,6.096,0.842,-0.129,-0.22,80.55,-45.75,-79.65,34.0
