timestamp,ax,ay,az,gx,gy,gz,mx,my,mz,dist
1786377786.552083,-9.816,2.492,-1.937,-0.363,-0.109,-0.067,71.1,-43.65,34.5,63.0
1786377786.5520988,-9.512,2.33,-1.906,-0.394,-0.089,-0.103,70.35,-46.35,34.5,63.0
1786377786.552106,-9.424,2.31,-1.985,-0.39,0.012,-0.188,71.1,-44.85,33.0,63.0
1786377786.5521119,-8.406,1.274,-1.384,-0.019,0.016,-0.296,67.8,-45.6,30.9,61.0
1786377786.5521193,-8.756,1.14,-1.207,0.036,0.11,-0.239,66.45,-45.0,31.05,61.0
1786377786.5521262,-8.823,0.989,-1.065,0.111,0.126,-0.142,66.75,-46.95,31.35,61.0
1786377786.5521326,-10.309,0.467,-1.47,0.649,-0.495,0.444,68.1,-43.65,32.25,66.0
1786377786.5521424,-10.218,0.206,-1.147,0.706,-0.605,0.452,70.5,-45.0,35.4,148.0
1786377786.552149,-10.515,0.062,-0.658,0.803,-0.675,0.438,69.75,-44.55,34.65,148.0
1786377786.5521555,-9.914,1.338,-1.137,0.357,0.063,-0.034,73.65,-42.45,39.6,1137.0
1786377786.5521612,-9.735,1.417,-1.159,0.267,-0.001,-0.044,70.35,-42.9,40.05,1274.0
1786377786.552167,-9.589,1.338,-1.097,0.206,-0.07,-0.06,70.35,-43.65,41.55,1274.0
1786377786.5521727,-9.665,1.369,-0.661,0.043,-0.105,0.046,71.25,-42.3,44.7,1275.0
1786377786.552178,-9.706,1.525,-0.747,0.069,-0.119,0.07,71.85,-43.2,43.65,1275.0
1786377786.5521836,-9.304,1.559,-1.166,-0.481,0.219,-0.15,70.8,-45.6,43.05,257.0
1786377786.5521889,-9.409,1.468,-1.305,-0.42,0.314,-0.117,71.7,-44.25,41.7,257.0
1786377786.5521944,-9.981,1.592,-1.439,-0.325,0.314,-0.065,70.5,-43.8,42.0,257.0
1786377786.5521996,-9.524,1.446,-1.283,0.07,-0.125,0.047,70.35,-44.85,39.6,177.0
1786377786.5522053,-9.515,1.465,-1.199,0.089,-0.064,0.043,71.85,-43.95,39.3,177.0
1786377786.552211,-9.548,1.525,-1.271,0.086,0.009,0.036,70.05,-45.9,40.05,177.0
1786377786.552216,-9.517,1.358,-1.12,-0.119,0.112,-0.13,70.95,-43.8,39.15,174.0
1786377786.5522215,-9.457,1.188,-1.051,-0.085,0.159,-0.135,69.6,-44.85,40.35,174.0
1786377786.552227,-9.61,1.298,-1.12,-0.071,0.153,-0.101,70.35,-44.85,40.35,174.0
1786377786.5522323,-9.594,1.221,-1.07,0.019,0.099,-0.034,70.05,-45.6,39.6,169.0
1786377786.5522375,-9.574,1.144,-0.989,0.026,0.095,-0.01,70.05,-44.85,39.6,169.0
1786377786.5522473,-9.586,1.013,-0.958,0.022,0.077,-0.005,69.75,-43.05,39.9,169.0
1786377786.5522525,-9.663,1.037,-1.343,0.044,-0.044,0.243,70.95,-45.0,40.2,176.0
1786377786.552258,-9.931,1.144,-1.516,0.084,-0.127,0.259,71.55,-43.65,40.35,176.0
1786377786.5522656,-10.027,1.389,-1.472,0.116,-0.216,0.291,71.1,-44.4,40.35,176.0
1786377786.5522807,-9.462,1.99,-0.338,0.113,-0.299,0.353,73.2,-43.8,43.95,145.0
1786377786.552289,-9.749,2.205,-0.275,0.12,-0.369,0.41,73.65,-43.95,43.35,145.0
1786377786.5522964,-9.68,2.344,-0.213,0.112,-0.48,0.458,73.2,-43.8,44.7,145.0
1786377786.5523021,-10.506,3.51,-1.116,-0.101,-0.214,0.259,77.1,-43.65,45.6,136.0
1786377786.5523074,-10.274,3.632,-0.97,-0.267,-0.356,0.183,78.6,-43.2,43.35,136.0
1786377786.5523138,-9.761,3.606,-0.857,-0.412,-0.358,0.106,77.25,-43.05,46.05,136.0
1786377786.5523193,-8.717,2.847,-0.165,-0.448,-0.12,-0.242,74.1,-44.4,41.85,137.0
1786377786.5523243,-8.586,2.935,-0.124,-0.488,-0.167,-0.199,73.65,-43.65,40.05,137.0
1786377786.5523295,-10.439,1.432,-0.007,-0.03,-0.051,0.135,73.65,-43.65,36.0,108.0
1786377786.5523348,-10.534,1.362,0.05,0.031,-0.037,0.088,75.0,-43.05,34.65,147.0
1786377786.5523398,-10.398,1.456,0.163,0.081,-0.002,0.052,73.65,-40.95,34.2,147.0
1786377786.552345,-9.323,2.035,0.464,0.044,-0.11,-0.051,74.85,-41.7,35.55,116.0
1786377786.5523503,-9.333,2.267,0.321,-0.012,-0.073,-0.081,73.35,-42.9,36.75,116.0
1786377786.552355,-9.538,2.291,0.278,-0.027,-0.058,-0.097,75.15,-40.5,36.75,131.0
1786377786.5523603,-9.658,2.382,0.611,0.231,-0.205,0.021,73.5,-43.5,39.15,178.0
1786377786.5523653,-9.629,2.363,0.572,0.244,-0.3,0.074,73.2,-43.05,39.45,178.0
1786377786.5523705,-9.301,2.325,0.637,0.242,-0.353,0.09,72.9,-43.2,40.05,131.0
1786377786.5523753,-9.064,2.631,0.555,-0.048,-0.076,-0.038,73.5,-42.6,41.25,192.0
1786377786.5523803,-9.175,2.567,0.496,-0.071,-0.083,-0.04,71.7,-43.05,41.25,192.0
1786377786.5523856,-9.057,2.504,0.551,-0.072,-0.059,-0.035,73.35,-43.65,42.3,140.0
1786377786.5523906,-9.333,2.32,0.721,0.012,0.017,0.011,72.15,-44.4,41.85,150.0
1786377786.5523956,-9.376,2.243,0.795,0.003,0.03,0.013,73.5,-42.6,41.25,150.0
1786377786.5524006,-9.443,2.227,0.855,-0.009,0.012,0.017,73.2,-43.05,43.5,125.0
1786377786.552406,-9.689,2.301,0.871,0.069,-0.004,-0.026,72.15,-43.65,41.55,137.0
1786377786.552411,-9.72,2.334,0.931,0.076,-0.047,-0.024,72.15,-42.45,43.05,137.0
1786377786.552416,-9.594,2.433,0.977,0.056,-0.095,-0.027,72.75,-43.5,41.25,137.0
1786377786.5524237,-9.28,2.528,0.86,-0.008,-0.001,0.002,70.8,-41.7,43.35,110.0
1786377786.5524306,-9.21,2.528,0.907,-0.021,0.002,0.007,72.45,-43.05,43.5,110.0
1786377786.5524373,-9.21,2.507,0.874,-0.022,-0.005,0.012,71.85,-43.05,43.5,110.0
1786377786.5524435,-9.388,2.26,0.848,-0.046,0.094,0.022,73.95,-41.85,43.2,120.0
1786377786.5524485,-9.574,2.277,0.883,-0.044,0.065,0.026,72.75,-44.55,42.45,120.0
1786377786.5524533,-9.536,2.507,1.03,0.038,-0.045,0.014,72.0,-42.3,43.5,138.0
1786377786.5524588,-9.44,2.571,0.989,0.006,-0.048,0.004,72.9,-42.45,44.4,138.0
1786377786.5524638,-9.4,2.483,1.001,0.005,-0.021,0.002,72.15,-42.15,43.65,138.0
1786377786.5524688,-9.313,2.538,0.73,0.003,-0.007,-0.015,71.25,-43.05,42.45,144.0
1786377786.5524755,-9.263,2.512,0.802,0.002,-0.005,-0.026,72.9,-42.9,43.35,144.0
1786377786.5524802,-9.189,2.449,0.764,0.004,0.012,-0.024,73.35,-42.15,43.35,144.0
1786377786.5524855,-9.491,2.454,0.824,0.008,0.036,0.01,71.7,-43.8,41.7,131.0
1786377786.5524902,-9.527,2.464,0.874,0.015,0.031,0.003,72.75,-43.05,43.2,131.0
1786377786.5524952,-9.646,2.483,0.876,0.011,0.018,0.01,72.15,-43.65,42.3,131.0
1786377786.5525002,-9.402,2.459,0.936,-0.026,0.014,-0.016,72.45,-42.3,45.0,130.0
1786377786.552505,-9.345,2.452,0.792,-0.031,0.024,-0.018,73.2,-43.05,42.75,130.0
1786377786.5525103,-9.476,2.411,0.781,-0.038,0.021,-0.022,73.2,-43.5,43.5,130.0
1786377786.5525153,-9.392,2.5,0.836,-0.009,0.022,-0.022,72.15,-43.2,43.35,138.0
1786377786.5525203,-9.524,2.516,0.888,0.003,0.014,-0.016,72.45,-43.8,43.5,134.0
1786377786.552525,-9.479,2.555,0.881,0.007,0.003,-0.016,74.25,-41.55,43.5,134.0
1786377786.5525298,-9.457,2.404,0.733,-0.019,-0.02,0.053,73.95,-43.8,44.25,131.0
1786377786.552535,-9.512,2.385,0.752,-0.021,-0.035,0.049,71.55,-43.2,44.1,140.0
1786377786.5525398,-9.522,2.44,0.728,-0.034,-0.051,0.038,72.6,-42.45,43.35,140.0
1786377786.5525448,-9.234,2.44,0.881,-0.031,0.011,-0.011,72.6,-40.95,43.35,148.0
1786377786.5525498,-9.297,2.502,0.943,-0.041,0.01,-0.016,73.5,-42.3,43.95,148.0
1786377786.5525548,-9.261,2.495,0.85,-0.035,0.036,-0.023,72.9,-41.7,43.65,134.0
1786377786.5525594,-9.227,2.636,0.927,-0.078,0.046,-0.059,72.75,-43.05,43.2,133.0
1786377786.5525641,-9.258,2.552,0.972,-0.07,0.081,-0.055,72.45,-43.5,41.7,141.0
1786377786.5525694,-9.704,2.325,0.579,-0.086,0.028,0.004,72.0,-43.5,41.7,132.0
1786377786.552574,-9.687,2.37,0.596,-0.068,0.032,-0.013,72.9,-43.2,41.1,132.0
1786377786.5525784,-9.646,2.461,0.563,-0.054,0.037,-0.029,72.45,-42.6,42.45,132.0
1786377786.5525835,-9.275,2.325,0.831,-0.069,0.023,0.038,72.9,-43.2,41.55,125.0
1786377786.552588,-9.318,2.363,0.716,-0.077,0.026,0.035,72.6,-42.9,40.8,125.0
1786377786.552593,-9.38,2.294,0.728,-0.095,0.04,0.032,71.25,-42.6,40.65,125.0
1786377786.5525975,-9.529,2.332,0.646,0.046,-0.019,0.071,72.9,-42.45,40.35,135.0
1786377786.5526023,-9.555,2.248,0.565,0.045,-0.056,0.092,72.6,-42.15,41.1,135.0
1786377786.552607,-9.34,2.385,0.745,0.057,-0.034,0.097,71.85,-41.25,39.6,135.0
1786377786.552612,-9.558,2.322,0.579,-0.011,0.011,0.06,73.2,-42.3,40.2,142.0
1786377786.552617,-9.534,2.356,0.565,-0.007,0.03,0.045,74.1,-41.7,42.6,142.0
1786377786.5526218,-9.704,2.368,0.51,-0.004,0.015,0.032,73.65,-41.7,41.55,142.0
1786377786.5526266,-9.342,2.646,0.67,0.055,0.0,-0.039,73.5,-41.55,41.25,140.0
1786377786.5526319,-9.167,2.72,0.704,0.038,0.007,-0.039,72.9,-41.7,40.35,140.0
1786377786.5526366,-9.201,2.756,0.737,0.015,0.015,-0.037,74.25,-42.6,41.7,140.0
1786377786.5526416,-9.258,2.725,0.728,-0.02,0.039,0.022,73.35,-41.7,41.85,130.0
1786377786.552647,-9.203,2.636,0.69,-0.021,0.044,0.021,73.2,-42.6,41.7,136.0
1786377786.5526745,-9.337,2.658,0.74,-0.022,0.065,0.031,73.35,-41.7,43.35,136.0
1786377786.5526795,-9.373,2.516,0.589,-0.021,0.027,0.029,73.65,-41.7,42.3,162.0
1786377786.5526843,-9.4,2.567,0.515,-0.013,0.043,0.024,73.35,-40.95,41.1,162.0
1786377786.552689,-9.397,2.502,0.522,-0.013,0.06,0.029,72.9,-42.45,39.3,162.0
1786377786.552694,-9.306,2.607,0.414,0.004,0.055,-0.001,74.7,-42.3,41.7,125.0
1786377786.5526989,-9.337,2.629,0.472,0.006,0.054,-0.001,74.85,-40.95,41.85,125.0
1786377786.552704,-9.369,2.653,0.378,0.007,0.06,0.007,74.7,-41.55,41.7,125.0
1786377786.5527086,-9.426,2.703,0.335,-0.02,0.051,-0.025,75.45,-43.05,40.95,120.0
1786377786.5527136,-9.448,2.756,0.311,-0.013,0.04,-0.026,74.4,-39.75,43.05,120.0
1786377786.5527186,-9.323,2.693,0.359,0.001,0.053,-0.007,75.45,-42.3,41.7,125.0
1786377786.5527232,-9.428,2.61,0.292,-0.014,0.023,0.037,74.1,-42.15,41.1,130.0
1786377786.5527282,-9.459,2.638,0.254,-0.025,0.026,0.032,73.65,-42.15,40.05,130.0
1786377786.552733,-9.395,2.638,0.235,-0.026,0.038,0.023,74.4,-40.2,41.85,130.0
1786377786.5527375,-9.194,2.653,0.225,-0.021,0.055,-0.002,74.1,-41.25,40.8,142.0
1786377786.5527425,-9.251,2.626,0.206,-0.018,0.055,0.0,76.35,-43.65,40.05,142.0
1786377786.5527472,-9.337,2.638,0.232,-0.01,0.037,0.005,75.6,-40.5,41.55,142.0
1786377786.552752,-9.213,2.552,0.275,-0.041,0.092,-0.029,74.1,-40.2,39.6,132.0
1786377786.552757,-9.407,2.476,0.22,-0.057,0.071,-0.001,74.4,-40.5,41.1,132.0
1786377786.5527618,-9.407,2.468,0.144,-0.052,0.03,0.023,74.25,-41.55,40.65,132.0
1786377786.5527668,-9.555,2.696,0.165,0.007,-0.001,-0.039,73.35,-42.15,41.55,120.0
1786377786.5527716,-9.44,2.679,0.115,-0.005,0.016,-0.056,75.15,-40.95,40.95,120.0
1786377786.5527763,-9.517,2.722,0.175,-0.009,0.014,-0.076,75.6,-41.7,40.8,120.0
1786377786.5527813,-9.287,2.806,0.263,0.004,-0.046,0.022,74.7,-42.6,42.0,135.0
1786377786.5527859,-9.268,2.741,0.294,-0.004,-0.051,0.043,73.5,-41.55,41.25,135.0
1786377786.552791,-9.378,2.567,0.237,-0.076,0.012,0.02,74.1,-41.25,41.1,150.0
1786377786.5527983,-9.388,2.526,0.208,-0.07,0.003,0.034,74.7,-42.6,41.25,150.0
1786377786.552803,-9.426,2.401,0.101,-0.051,0.0,0.045,74.7,-41.55,42.0,150.0
1786377786.552808,-9.512,2.634,0.117,0.06,-0.01,-0.034,74.7,-41.55,41.7,118.0
1786377786.5528128,-9.495,2.739,0.208,0.049,-0.012,-0.057,73.95,-41.1,41.7,118.0
1786377786.5528176,-9.467,2.818,0.266,0.032,-0.012,-0.074,75.45,-41.1,42.0,118.0
1786377786.5528226,-9.371,2.804,0.364,-0.006,-0.046,0.059,75.45,-42.3,42.0,138.0
1786377786.5528271,-9.443,2.806,0.378,-0.022,-0.04,0.049,73.95,-40.65,42.75,138.0
1786377786.552832,-9.4,2.794,0.378,-0.03,-0.006,0.04,74.25,-41.85,42.0,139.0
1786377786.5528367,-9.239,2.555,0.089,-0.087,0.052,-0.004,75.75,-41.55,41.7,131.0
1786377786.5528412,-9.323,2.535,0.086,-0.071,0.054,-0.001,74.4,-40.95,41.1,148.0
1786377786.5528462,-9.316,2.504,0.187,-0.037,0.049,0.019,75.6,-41.25,42.3,148.0
1786377786.552851,-9.773,2.655,0.215,0.025,-0.029,0.016,75.45,-39.9,40.95,138.0
1786377786.552856,-9.613,2.744,0.297,0.011,-0.022,-0.004,75.15,-40.95,41.55,128.0
1786377786.5528607,-9.629,2.689,0.251,0.004,-0.013,-0.014,75.75,-41.85,41.25,128.0
1786377786.5528657,-9.184,2.732,0.072,-0.049,0.016,-0.032,74.4,-41.7,41.1,125.0
1786377786.5528708,-9.177,2.653,0.141,-0.04,0.024,-0.016,74.85,-41.25,41.55,126.0
1786377786.5528758,-9.175,2.679,0.093,-0.017,0.023,0.01,74.85,-41.25,41.1,126.0
1786377786.5528805,-9.357,2.737,0.261,-0.023,0.031,0.039,74.7,-41.1,41.25,137.0
1786377786.5528855,-9.29,2.717,0.261,-0.038,0.061,0.031,76.35,-40.5,40.8,137.0
1786377786.5528903,-9.388,2.677,0.275,-0.054,0.056,0.03,75.9,-39.3,40.35,111.0
1786377786.552895,-9.481,2.636,0.146,0.006,0.029,0.028,74.85,-40.5,40.35,128.0
1786377786.5529,-9.51,2.593,0.204,0.001,-0.034,0.037,75.0,-40.65,42.75,128.0
1786377786.5529046,-9.318,2.684,0.132,0.019,0.024,0.039,75.9,-40.2,39.3,136.0
1786377786.5529096,-9.352,2.899,0.256,-0.016,0.022,-0.038,75.15,-39.3,41.85,123.0
1786377786.5529144,-9.306,2.871,0.153,-0.031,0.027,-0.044,74.4,-39.75,40.8,123.0
1786377786.5529191,-9.29,2.818,0.168,-0.043,0.011,-0.03,75.45,-39.9,42.45,120.0
1786377786.552924,-9.299,2.72,0.177,-0.003,0.019,0.016,76.35,-40.2,41.55,132.0
1786377786.5529287,-9.371,2.835,0.134,-0.002,0.024,0.019,75.75,-41.55,42.45,132.0
1786377786.5529335,-9.397,2.772,0.187,0.013,0.026,0.014,77.1,-39.75,40.8,132.0
1786377786.5529382,-9.395,2.739,0.089,-0.013,-0.014,0.01,75.6,-40.5,40.35,127.0
1786377786.552943,-9.383,2.784,0.146,0.003,-0.006,0.001,75.15,-42.15,41.55,127.0
1786377786.5529478,-9.321,2.811,0.153,0.012,-0.001,-0.002,76.65,-40.5,40.8,127.0
1786377786.5529528,-9.242,2.808,0.069,0.001,0.015,0.059,75.0,-40.65,40.65,143.0
1786377786.5529575,-9.179,2.835,0.014,0.013,0.032,0.061,75.9,-40.95,43.05,143.0
1786377786.5529623,-9.28,2.804,0.057,0.022,0.032,0.085,77.25,-40.65,41.7,143.0
1786377786.552967,-9.462,2.878,0.225,-0.052,0.021,0.059,75.6,-39.75,42.6,142.0
1786377786.5529718,-9.383,2.777,0.168,-0.048,0.011,0.039,77.4,-39.75,41.55,142.0
1786377786.5529766,-9.388,2.844,0.108,-0.044,0.005,0.023,77.1,-39.3,42.3,142.0
1786377786.5529811,-9.407,3.199,0.244,0.071,-0.076,-0.007,77.55,-38.85,43.5,110.0
1786377786.5529861,-9.357,3.321,0.352,0.065,-0.091,-0.039,77.55,-39.9,44.7,110.0
1786377786.5529914,-9.325,3.333,0.376,0.049,-0.096,-0.071,77.4,-39.75,44.1,110.0
1786377786.5529964,-8.801,3.017,0.309,-0.048,0.026,-0.002,76.35,-40.5,44.85,131.0
1786377786.5530012,-8.95,2.962,0.29,-0.042,0.039,0.029,75.45,-41.1,43.95,131.0
1786377786.5530062,-9.019,2.902,0.263,-0.023,0.028,0.058,76.2,-41.1,43.95,131.0
1786377786.5530107,-9.476,3.115,0.235,-0.004,0.026,0.014,77.85,-39.75,44.1,131.0
1786377786.5530152,-9.433,3.077,0.251,-0.038,0.042,-0.045,77.1,-40.5,44.1,142.0
1786377786.5530205,-9.38,3.033,0.287,-0.038,0.062,-0.063,75.75,-38.85,43.2,142.0
1786377786.553025,-9.27,3.053,0.148,-0.029,0.037,-0.031,77.25,-39.6,42.75,138.0
1786377786.5530295,-9.191,3.024,0.223,-0.024,0.027,-0.019,76.35,-38.55,42.3,149.0
1786377786.5530348,-9.124,2.942,0.292,-0.017,0.038,-0.007,75.6,-40.95,43.05,149.0
1786377786.5530396,-9.397,2.942,0.242,-0.03,0.005,-0.003,76.65,-40.2,43.05,141.0
1786377786.5530446,-9.34,2.933,0.235,-0.047,0.017,-0.02,77.25,-41.55,43.2,135.0
1786377786.5530496,-9.311,2.945,0.237,-0.053,0.034,-0.036,75.45,-40.35,42.45,135.0
1786377786.5530546,-9.445,3.06,0.213,0.023,-0.007,-0.026,75.0,-40.35,42.45,139.0
1786377786.5530593,-9.459,3.065,0.22,0.005,-0.015,-0.047,75.9,-41.7,42.3,139.0
1786377786.553064,-9.407,3.103,0.244,-0.013,0.003,-0.057,74.85,-39.75,41.85,139.0
1786377786.553069,-9.282,2.799,0.026,-0.049,0.057,0.03,75.15,-40.5,41.85,134.0
1786377786.5530736,-9.452,2.844,0.065,-0.028,0.031,0.057,76.5,-40.35,42.3,134.0
1786377786.5530784,-9.486,2.856,0.045,-0.003,-0.005,0.071,76.5,-40.35,43.2,134.0
1786377786.5530834,-9.316,2.861,0.074,-0.068,0.041,-0.038,76.65,-39.3,41.1,124.0
1786377786.553088,-9.325,2.851,0.05,-0.059,0.033,-0.026,76.2,-39.9,42.75,124.0
1786377786.5530927,-9.29,2.907,0.151,0.015,0.01,0.02,75.0,-40.65,42.45,147.0
1786377786.5530975,-9.278,2.875,0.223,0.007,0.011,0.03,76.2,-39.9,42.0,147.0
1786377786.5531023,-9.333,2.909,0.218,-0.001,0.011,0.029,75.9,-40.5,42.3,147.0
1786377786.553107,-9.373,2.861,0.022,-0.015,0.009,-0.008,77.85,-41.25,43.35,138.0
1786377786.5531118,-9.345,2.873,-0.072,-0.005,0.005,-0.01,74.4,-39.75,43.05,138.0
1786377786.5531163,-9.282,2.885,-0.017,0.006,-0.005,-0.011,74.85,-40.5,42.3,138.0
1786377786.5531216,-9.34,2.933,0.065,0.009,0.012,0.009,75.6,-40.95,41.55,136.0
1786377786.5531263,-9.249,2.974,0.057,-0.014,0.018,-0.003,77.1,-40.5,43.05,136.0
1786377786.5531316,-9.225,2.923,0.031,-0.017,0.03,-0.003,76.95,-40.35,43.2,136.0
1786377786.5531363,-9.27,2.966,0.199,0.001,-0.042,0.0,76.65,-39.3,42.6,135.0
1786377786.5531414,-9.206,3.045,0.184,-0.026,-0.03,-0.014,76.5,-40.65,42.0,135.0
1786377786.5531461,-9.105,2.844,0.196,-0.046,-0.023,-0.021,75.45,-40.65,43.2,135.0
1786377786.553151,-9.333,2.88,0.215,0.032,-0.12,0.036,76.35,-39.75,43.05,132.0
1786377786.5531557,-9.304,2.887,0.311,0.038,-0.06,0.008,75.45,-40.35,44.25,132.0
1786377786.5531743,-9.486,3.057,0.369,0.044,-0.037,-0.018,76.5,-39.15,42.75,132.0
1786377786.5531795,-8.997,2.871,0.419,-0.032,0.115,-0.021,76.95,-40.35,43.2,140.0
1786377786.5531845,-9.06,2.935,0.354,-0.028,0.104,0.018,76.2,-39.6,42.75,140.0
1786377786.553189,-9.342,2.923,0.285,-0.009,0.068,0.043,76.5,-39.6,42.75,140.0
1786377786.5531943,-9.615,3.428,1.159,0.0,-0.429,0.253,77.4,-39.3,44.4,147.0
1786377786.5531988,-8.796,3.33,0.998,-0.364,0.045,0.006,77.25,-39.15,46.05,128.0
1786377786.5532038,-8.696,3.129,0.919,-0.338,0.086,0.015,76.2,-39.15,44.7,126.0
1786377786.5532086,-9.055,3.302,0.828,-0.175,0.138,0.011,78.3,-41.55,40.65,84.0
1786377786.5532134,-9.009,3.316,0.867,-0.15,0.095,0.006,77.25,-39.9,41.7,84.0
1786377786.5532184,-8.928,3.34,0.907,-0.096,0.055,0.013,77.25,-39.6,40.95,92.0
1786377786.5532231,-9.048,3.464,1.346,0.043,-0.07,0.034,78.15,-39.75,41.55,95.0
1786377786.5532281,-9.021,3.596,1.472,0.035,-0.032,0.024,78.9,-39.75,41.55,95.0
1786377786.5532327,-9.088,3.553,1.415,0.03,0.015,-0.004,76.5,-40.65,40.95,95.0
1786377786.5532374,-9.12,3.376,1.259,0.015,-0.014,-0.029,76.65,-39.75,41.85,99.0
1786377786.5532422,-9.009,3.469,1.305,0.029,-0.03,-0.031,76.65,-40.5,41.55,99.0
1786377786.553247,-9.029,3.519,1.422,0.037,-0.039,-0.048,77.1,-39.0,40.35,99.0
1786377786.5532515,-8.636,3.433,1.384,-0.013,0.074,-0.134,77.55,-39.6,43.5,102.0
1786377786.5532568,-8.648,3.309,1.408,-0.011,0.079,-0.11,76.95,-39.9,42.0,102.0
1786377786.5532615,-8.689,3.393,1.269,-0.047,0.042,-0.086,77.85,-42.15,42.6,102.0
1786377786.5532715,-9.632,3.134,1.101,0.072,-0.081,0.12,78.15,-40.2,43.05,106.0
1786377786.553277,-9.543,3.187,1.147,0.071,-0.048,0.081,77.4,-40.5,43.35,106.0
1786377786.6507385,-9.639,1.494,-0.843,0.21,0.007,-0.189,67.95,-46.5,26.25,258.0
1786377786.6507623,-9.474,1.501,-0.766,0.303,0.093,-0.164,64.95,-46.5,26.25,258.0
1786377786.6507733,-9.476,1.551,-0.699,0.345,0.182,-0.15,66.6,-46.65,27.9,258.0
1786377786.8549447,-9.38,1.271,-1.101,0.457,0.73,-0.056,65.4,-46.5,27.75,1266.0
1786377786.8549707,-9.752,1.104,-1.132,0.46,0.655,0.027,63.9,-47.25,28.8,1266.0
1786377786.8549817,-9.752,1.061,-1.348,0.483,0.515,0.093,65.55,-45.6,28.95,1266.0
1786377787.0594614,-9.177,0.903,-2.004,0.114,0.137,0.008,65.55,-47.55,30.15,1325.0
1786377787.0594862,-9.397,0.955,-1.98,0.024,0.043,-0.02,63.6,-46.65,28.65,1325.0
1786377787.059497,-9.699,0.733,-2.078,-0.004,0.074,-0.027,65.4,-47.25,27.75,1325.0
1786377787.2649634,-9.558,1.269,-1.999,-0.05,0.101,-0.122,66.6,-47.1,27.9,1328.0
1786377787.2649877,-9.543,1.211,-2.033,-0.018,0.151,-0.16,65.85,-47.1,28.2,1328.0
1786377787.264999,-9.467,1.178,-1.939,-0.046,0.16,-0.173,66.6,-46.65,28.65,1328.0
1786377787.469005,-9.649,0.979,-2.239,-0.312,-0.167,0.035,66.45,-45.75,27.75,1335.0
1786377787.4690294,-10.072,0.91,-1.97,-0.375,-0.322,0.108,66.75,-47.25,26.55,1335.0
1786377787.4690409,-9.661,0.687,-1.918,-0.399,-0.48,0.142,65.85,-45.15,27.45,1335.0
1786377787.6742835,-9.96,0.723,-1.504,0.055,0.085,-0.4,66.75,-46.2,27.0,1272.0
1786377787.6743102,-10.053,0.852,-1.604,0.11,0.181,-0.455,64.8,-45.15,26.4,1273.0
1786377787.6743226,-9.658,0.611,-1.47,0.184,0.223,-0.524,65.55,-46.35,25.35,1273.0
1786377787.8786895,-9.538,0.342,-1.674,0.112,0.348,-0.624,60.3,-45.9,27.45,1293.0
1786377787.8787136,-8.916,0.115,-1.772,0.119,0.457,-0.651,60.9,-46.2,27.75,1293.0
1786377787.8787248,-9.256,0.124,-2.018,0.036,0.544,-0.625,58.95,-48.0,25.5,1306.0
1786377788.0840876,-9.002,-1.164,-2.464,-0.073,0.401,-0.391,55.95,-46.5,24.75,1309.0
1786377788.084113,-9.055,-1.305,-2.612,-0.094,0.343,-0.34,53.4,-46.2,24.75,1309.0
1786377788.084124,-8.969,-1.307,-2.72,-0.118,0.271,-0.259,55.8,-46.65,26.1,1326.0
1786377788.2884057,-9.488,-1.561,-2.806,0.002,-0.015,0.039,54.15,-45.0,21.75,1325.0
1786377788.288429,-9.613,-1.267,-2.708,0.035,-0.046,0.051,52.65,-46.2,22.2,1325.0
1786377788.28844,-9.38,-1.152,-2.504,-0.01,-0.135,0.069,53.55,-45.15,22.35,1331.0
1786377788.49589,-9.977,-1.551,-3.084,-0.157,-0.037,-0.018,54.3,-43.95,22.35,1327.0
1786377788.4959142,-9.881,-1.607,-3.002,-0.131,-0.119,-0.019,56.25,-43.95,20.85,1327.0
1786377788.4959257,-9.761,-1.477,-2.988,-0.088,-0.148,-0.03,54.9,-44.25,22.5,1321.0
1786377788.6982281,-8.952,-1.674,-2.844,-0.145,0.057,-0.083,54.75,-44.85,21.3,1311.0
1786377788.6982534,-8.93,-1.666,-2.84,-0.125,0.07,-0.024,53.1,-44.25,20.4,1311.0
1786377788.6982653,-8.926,-1.697,-2.854,-0.145,0.059,0.046,54.75,-44.4,20.85,1311.0
1786377788.9035807,-10.321,-1.111,-2.931,0.043,-0.288,0.283,56.25,-46.35,19.5,1321.0
1786377788.9036064,-10.173,-0.974,-2.758,0.061,-0.362,0.269,56.55,-45.15,21.3,1321.0
1786377788.903618,-9.996,-0.931,-2.65,0.051,-0.357,0.213,57.75,-45.15,20.85,1321.0
1786377789.1089506,-9.577,-1.142,-2.124,-0.158,-0.045,0.055,57.0,-45.9,19.8,1314.0
1786377789.108975,-9.687,-1.077,-2.32,-0.121,-0.092,0.093,56.55,-43.2,20.55,1314.0
1786377789.3128233,-9.969,-0.34,-2.236,0.069,-0.038,0.03,58.95,-46.2,20.4,1300.0
1786377789.3128483,-9.934,-0.294,-2.181,0.068,-0.054,0.002,57.45,-45.0,21.15,1300.0
1786377789.3128595,-9.646,-0.275,-2.227,0.024,-0.085,-0.014,59.25,-44.4,21.3,1300.0
1786377789.5177193,-9.304,-0.781,-2.16,-0.04,-0.031,-0.001,57.0,-45.6,20.1,1281.0
1786377789.5177448,-9.428,-0.788,-2.246,-0.028,-0.015,0.012,58.2,-45.3,21.75,1281.0
1786377789.517756,-9.625,-0.725,-2.193,-0.014,0.003,0.022,58.8,-45.6,20.85,1281.0
1786377789.7219882,-9.747,-0.567,-1.688,0.007,0.011,-0.032,58.2,-45.0,22.2,1298.0
1786377789.722013,-9.448,-0.625,-1.686,-0.028,0.026,-0.033,57.9,-45.0,22.2,1305.0
1786377789.7220237,-9.615,-0.675,-1.709,-0.041,0.063,-0.036,58.05,-46.35,21.6,1305.0
1786377789.9276395,-9.821,-0.618,-1.86,-0.037,0.01,0.013,57.45,-45.75,20.4,1298.0
1786377789.9276652,-9.795,-0.52,-1.913,-0.049,-0.009,-0.002,58.5,-45.9,21.3,1295.0
1786377789.9276762,-9.807,-0.515,-1.937,-0.039,0.004,-0.02,58.5,-46.35,20.85,1295.0
1786377790.1317296,-9.625,-0.697,-1.915,-0.032,-0.049,-0.017,57.0,-45.9,21.3,1293.0
1786377790.131754,-9.579,-0.721,-1.906,-0.03,-0.01,-0.032,58.05,-46.65,19.8,1301.0
1786377790.1317654,-9.572,-0.737,-1.867,-0.024,0.029,-0.039,57.9,-46.5,19.95,1301.0
1786377790.3362656,-9.464,-0.742,-1.87,-0.037,-0.052,-0.022,57.3,-44.85,21.3,1303.0
1786377790.3362968,-9.553,-0.713,-1.882,-0.038,0.004,-0.034,57.75,-44.4,19.8,1308.0
1786377790.336309,-9.653,-0.67,-1.889,-0.022,0.021,-0.032,58.8,-45.15,20.85,1308.0
1786377790.5411782,-9.627,-0.8,-1.884,-0.032,-0.049,0.016,57.15,-45.3,21.15,1306.0
1786377790.5412033,-9.646,-0.69,-1.844,-0.019,-0.023,-0.005,58.05,-45.15,20.1,1306.0
1786377790.5412145,-9.649,-0.735,-1.812,-0.022,0.019,-0.013,57.0,-45.6,20.55,1306.0
1786377790.746169,-9.62,-0.848,-1.817,-0.005,0.028,-0.025,57.0,-45.15,20.55,1293.0
1786377790.746194,-9.692,-0.79,-1.879,-0.014,0.028,-0.009,58.5,-43.95,20.85,1293.0
1786377790.7462049,-9.771,-0.771,-1.836,-0.02,0.019,-0.01,57.15,-46.5,19.2,1307.0
1786377790.9519331,-9.591,-0.864,-1.863,-0.02,0.021,-0.003,58.95,-44.55,21.45,1303.0
1786377790.9519575,-9.72,-0.747,-1.884,-0.031,0.015,-0.004,57.75,-45.15,20.55,1303.0
1786377790.9519687,-9.658,-0.821,-1.966,-0.044,0.013,-0.015,57.75,-44.85,20.55,1303.0
1786377791.1560042,-9.821,-0.728,-1.784,-0.014,-0.039,0.009,58.5,-45.15,20.85,1293.0
1786377791.1560292,-9.792,-0.73,-1.817,-0.01,-0.032,0.003,57.45,-46.5,19.95,1293.0
1786377791.1560404,-9.723,-0.776,-1.786,-0.017,-0.006,-0.014,56.4,-45.75,19.2,1293.0
1786377791.3581836,-9.579,-0.864,-1.86,-0.051,-0.045,0.018,57.0,-45.6,18.75,1296.0
1786377791.3582082,-9.548,-0.819,-1.779,-0.023,-0.038,0.007,57.75,-45.6,21.3,1296.0
1786377791.3616397,-9.639,-0.797,-1.769,-0.009,-0.022,0.023,57.3,-44.4,19.5,1296.0
1786377791.5729475,-9.876,-0.764,-1.762,0.024,-0.013,0.028,57.15,-46.95,20.7,1305.0
1786377791.5729728,-9.821,-0.754,-1.683,0.017,-0.024,0.02,56.55,-45.9,20.1,1305.0
1786377791.572984,-9.977,-0.68,-1.736,0.005,-0.047,0.007,58.05,-45.9,21.6,1305.0
1786377791.7759857,-10.238,-0.668,-1.149,-0.002,-0.131,-0.064,57.3,-45.6,20.55,1302.0
1786377791.77601,-10.056,-0.666,-0.984,-0.045,-0.15,-0.074,56.55,-45.9,20.55,1302.0
1786377791.7760212,-9.816,-0.69,-0.984,-0.072,-0.109,-0.12,56.55,-47.85,21.6,1302.0
1786377791.975059,-9.273,-0.95,-2.265,-0.528,-0.001,-0.197,54.75,-46.35,18.0,1289.0
1786377791.9751344,-9.134,-1.106,-2.265,-0.62,0.051,-0.219,55.95,-45.75,17.1,1289.0
1786377791.9751694,-9.199,-1.116,-2.181,-0.691,0.14,-0.222,55.95,-44.55,17.1,1289.0
1786377792.1795595,-9.179,-1.341,-2.468,-0.548,0.44,-0.21,52.35,-43.05,14.1,103.0
1786377792.1795847,-9.45,-1.458,-2.478,-0.441,0.478,-0.211,52.8,-42.45,12.0,103.0
1786377792.1795957,-9.486,-1.374,-2.559,-0.285,0.459,-0.201,51.6,-43.05,12.3,103.0
1786377792.3848412,-9.0,-2.588,-4.549,5.963,-1.443,2.102,57.3,-44.85,26.85,1229.0
1786377792.3848665,-6.773,-1.915,-4.202,6.604,-1.261,2.308,59.7,-45.3,34.65,1229.0
1786377792.3848777,-7.776,-0.335,-3.345,7.056,-1.015,2.119,59.7,-45.3,38.4,1229.0
1786377792.5901608,-10.92,3.764,-0.955,-2.26,0.315,-1.339,67.95,-26.1,67.05,440.0
1786377792.590189,-10.575,2.416,-0.486,-2.679,0.309,-1.761,67.8,-28.95,66.6,440.0
1786377792.5902023,-9.596,1.774,-0.828,-3.055,0.543,-2.001,69.0,-31.5,64.8,440.0
1786377792.7945414,-7.903,-3.615,-1.592,-4.241,0.571,-1.706,54.75,-45.6,26.85,1273.0
1786377792.7945783,-10.027,-3.826,-2.255,-3.104,0.738,-1.516,53.55,-44.85,26.1,1273.0
1786377792.7945848,-9.591,-2.945,-3.448,-2.188,0.695,-1.151,50.25,-44.4,19.8,1273.0
1786377793.000524,-8.365,-2.358,-2.851,-0.054,-0.094,-0.015,48.15,-41.1,15.9,57.0
1786377793.0005484,-8.921,-2.674,-2.483,-0.008,-0.151,0.01,48.0,-41.25,17.55,57.0
1786377793.00056,-8.777,-2.488,-2.662,0.071,-0.153,-0.021,47.7,-42.15,15.45,57.0
1786377793.204224,-9.237,-2.538,-2.346,-0.274,-0.097,0.16,47.85,-41.85,15.6,47.0
1786377793.204248,-9.261,-2.574,-2.449,-0.142,-0.158,0.171,48.15,-41.55,14.1,47.0
1786377793.2042594,-9.127,-2.502,-2.598,-0.047,-0.182,0.171,48.75,-40.5,14.7,47.0
1786377793.408221,-9.713,-2.248,-2.375,-0.096,-0.088,0.023,49.5,-42.9,13.2,64.0
1786377793.4082458,-9.45,-2.265,-2.406,-0.102,-0.046,0.057,49.05,-41.7,14.7,64.0
1786377793.4082568,-9.28,-2.33,-2.483,-0.086,0.01,0.097,48.9,-41.85,14.1,64.0
1786377793.612931,-9.534,-2.646,-4.08,5.185,-0.587,1.742,55.65,-45.75,20.4,63.0
1786377793.612955,-9.177,-2.148,-4.559,5.984,-0.967,1.844,56.7,-45.75,27.3,63.0
1786377793.612966,-8.282,-1.786,-5.222,6.425,-0.923,2.209,59.55,-45.9,32.7,63.0
1786377793.8200362,-9.723,4.245,1.001,-0.337,0.192,-0.006,67.2,-24.9,70.8,481.0
1786377793.8200614,-9.874,3.699,0.445,-0.485,0.223,-0.2,67.5,-26.4,70.8,481.0
1786377793.820073,-10.154,3.223,-0.314,-0.554,0.254,-0.338,67.95,-25.65,70.05,481.0
1786377794.023072,-10.027,0.74,-1.286,-4.008,0.177,-1.315,63.45,-39.6,58.95,478.0
1786377794.0230963,-9.376,-0.283,-1.415,-4.608,0.287,-1.23,61.05,-42.15,54.45,478.0
1786377794.0231078,-9.567,-0.397,-1.583,-5.09,0.295,-1.244,59.7,-44.25,48.3,478.0
1786377794.2276227,-9.716,-0.512,-2.784,-0.309,-0.275,0.094,54.3,-42.45,10.2,43.0
1786377794.2276475,-9.486,-0.601,-2.653,-0.229,-0.33,0.102,54.3,-42.9,13.5,43.0
1786377794.227659,-9.357,-0.857,-2.222,-0.003,-0.31,0.026,54.3,-42.45,10.2,35.0
1786377794.4331691,-9.428,-0.39,-1.836,-0.006,-0.054,0.09,55.5,-42.9,11.7,44.0
1786377794.4331937,-9.737,-0.646,-1.458,-0.143,-0.071,0.03,53.55,-41.7,12.0,44.0
1786377794.6377091,-9.574,-0.306,-1.688,0.077,0.069,0.132,56.25,-43.95,13.2,43.0
1786377794.6377344,-9.792,-0.318,-1.551,0.053,0.024,0.124,55.5,-42.45,12.0,43.0
1786377794.6377454,-9.433,-0.441,-1.48,0.169,0.054,0.119,54.9,-43.5,12.3,48.0
1786377794.841834,-10.484,-0.486,-1.731,0.379,0.031,0.226,58.8,-43.95,12.45,35.0
1786377794.841859,-10.465,-0.378,-1.824,0.579,0.061,0.186,57.0,-42.15,14.25,35.0
1786377794.84187,-10.367,-0.91,-1.451,0.798,0.046,0.152,58.05,-43.65,13.2,35.0
1786377795.0474427,-9.543,-0.235,-3.871,5.206,-1.443,0.809,61.65,-47.25,28.5,82.0
1786377795.0474675,-7.515,-0.381,-3.871,5.828,-0.757,1.217,62.4,-46.95,37.95,82.0
1786377795.0474782,-7.779,-0.539,-3.893,6.11,-0.24,1.353,64.95,-47.25,40.2,82.0
1786377795.2527506,-9.124,4.07,0.18,0.283,-0.301,-0.066,66.45,-22.95,74.85,561.0
1786377795.2527752,-8.77,3.752,0.081,-0.45,-0.171,-0.43,68.25,-22.2,75.9,561.0
1786377795.2527869,-9.33,3.757,-0.093,-1.019,-0.056,-0.637,67.05,-20.4,75.0,561.0
1786377795.4571297,-10.554,-1.468,-1.544,-5.351,1.456,-1.504,56.55,-47.55,44.4,466.0
1786377795.4571536,-11.389,-0.996,-2.533,-5.197,0.992,-0.991,57.45,-49.65,40.95,466.0
1786377795.457165,-9.189,-2.298,-1.982,-4.545,0.494,-1.187,55.05,-50.25,33.75,466.0
1786377795.6616218,-9.285,-1.638,-2.782,-0.538,-0.327,-0.004,53.1,-43.05,14.4,39.0
1786377795.6616466,-9.421,-1.927,-2.416,-0.462,-0.393,-0.042,53.4,-42.3,15.6,39.0
1786377795.6616578,-9.507,-1.932,-2.294,-0.233,-0.451,-0.122,52.5,-43.95,16.8,39.0
1786377795.8660965,-9.503,-1.53,-1.573,-0.101,0.023,0.018,53.7,-42.6,14.4,30.0
1786377795.866122,-9.809,-1.307,-1.76,-0.04,-0.004,0.024,53.4,-43.05,13.65,24.0
1786377795.8661332,-9.828,-1.338,-1.618,-0.049,-0.142,0.057,52.65,-43.05,15.9,24.0
1786377796.0725727,-10.053,-0.69,-2.167,-0.047,0.048,-0.027,53.25,-42.15,14.25,34.0
1786377796.0725975,-10.017,-0.828,-1.925,-0.01,0.087,-0.028,51.75,-41.25,13.95,42.0
1786377796.0726087,-9.989,-0.591,-2.042,-0.003,-0.039,-0.04,51.9,-42.6,14.1,42.0
1786377796.2750883,-9.828,-2.198,-1.398,0.036,0.07,0.09,52.35,-43.5,15.15,45.0
1786377796.2751129,-9.871,-1.887,-1.504,0.003,0.038,0.058,50.25,-43.95,15.0,55.0
1786377796.4818318,-11.023,-2.452,-3.668,5.444,-0.214,0.852,55.5,-45.15,20.85,68.0
1786377796.4818568,-9.704,-2.081,-4.851,6.36,-0.564,1.074,58.05,-45.6,29.4,1320.0
1786377796.4818678,-8.411,-1.755,-5.193,6.847,-0.659,1.361,59.7,-47.25,31.05,1320.0
1786377796.686153,-10.242,2.464,1.614,-1.443,-0.65,0.33,66.45,-30.3,63.75,1320.0
1786377796.6861792,-9.893,1.805,0.8,-2.15,-0.585,-0.043,66.45,-32.25,63.0,1320.0
1786377796.6861904,-8.938,1.24,0.259,-2.634,-0.408,-0.421,66.75,-32.55,61.2,1320.0
1786377796.8902433,-4.616,5.083,1.683,-5.328,0.76,-0.395,51.3,-43.65,22.35,1373.0
1786377796.8902786,-10.384,-1.264,-2.358,-4.141,0.615,-0.608,51.3,-42.45,19.8,38.0
1786377796.8902905,-8.48,-2.631,-1.638,-3.322,0.084,-0.686,52.5,-39.75,12.45,38.0
1786377797.0971093,-9.167,-2.286,-3.824,0.489,-0.413,0.204,54.0,-37.05,8.7,28.0
1786377797.0971324,-8.942,-2.301,-3.369,0.253,-0.508,0.191,54.15,-37.65,10.05,28.0
1786377797.097144,-9.649,-2.576,-2.892,0.369,-0.241,0.245,52.5,-35.55,10.65,34.0
1786377797.3002417,-9.117,-1.329,-2.545,0.378,-0.39,0.018,51.3,-38.55,13.2,49.0
1786377797.300266,-9.459,-1.891,-1.865,0.43,-0.303,0.058,52.8,-40.2,13.5,49.0
1786377797.300293,-9.342,-2.021,-1.518,0.386,-0.289,0.081,52.65,-38.85,11.85,42.0
1786377797.5037775,-9.464,-2.054,-1.532,-0.703,0.023,-0.368,53.4,-41.55,14.85,40.0
1786377797.503802,-9.821,-2.054,-1.338,-0.835,0.036,-0.35,52.35,-41.1,13.35,40.0
1786377797.5038133,-9.543,-2.042,-1.693,-0.97,-0.001,-0.329,53.1,-41.1,13.35,40.0
1786377797.7165065,-8.93,-3.847,-2.373,2.969,-0.117,1.634,57.0,-40.95,14.7,45.0
1786377797.7165303,-8.835,-2.298,-2.95,3.972,-0.221,1.857,54.75,-40.5,13.95,45.0
1786377797.7165415,-8.495,-1.913,-3.259,4.783,-0.179,1.892,59.4,-41.85,19.65,45.0
1786377797.9223416,-11.827,-0.213,0.821,3.403,0.076,0.512,60.45,-33.75,66.0,1314.0
1786377797.922366,-11.327,0.965,1.566,1.888,-0.153,0.409,57.75,-31.95,69.15,1314.0
1786377797.9223766,-10.575,3.215,2.023,0.499,-0.134,0.336,60.15,-29.55,70.8,1314.0
1786377798.1193414,-10.396,-0.472,0.242,-3.039,0.196,-0.952,61.05,-33.15,65.1,1314.0
1786377798.1193666,-10.254,-0.608,0.101,-3.417,0.062,-0.968,59.85,-39.0,60.6,1314.0
1786377798.119378,-10.072,-0.546,-0.498,-3.958,0.072,-0.997,57.75,-40.95,57.0,1314.0
1786377798.3236265,-10.202,-2.342,-2.105,-3.034,0.277,-0.811,48.3,-45.6,23.85,39.0
1786377798.323651,-11.892,-8.44,-2.586,-2.443,0.198,-0.043,49.5,-45.9,22.8,39.0
1786377798.3236625,-10.343,-2.811,-2.684,-1.75,-0.023,0.027,48.75,-43.2,19.05,39.0
1786377798.529344,-9.778,-2.239,-2.67,-0.155,0.147,-0.07,51.3,-39.3,12.75,30.0
1786377798.5293698,-9.718,-2.468,-2.634,-0.02,0.109,0.057,49.5,-40.95,13.95,30.0
1786377798.529381,-9.718,-2.15,-2.808,0.08,0.024,0.081,50.25,-41.25,13.5,30.0
1786377798.7329137,-9.321,-2.004,-2.172,0.023,-0.145,0.063,49.65,-42.3,13.35,29.0
1786377798.732937,-9.345,-2.009,-2.143,0.034,-0.1,0.102,50.55,-42.15,14.25,29.0
1786377798.9380703,-9.27,-2.102,-2.028,1.085,-0.328,0.45,51.15,-44.25,16.65,33.0
1786377798.9380953,-9.706,-2.346,-1.946,1.713,-0.367,0.639,52.8,-43.2,17.25,62.0
1786377799.1442552,-11.358,1.937,1.753,2.298,0.448,-0.048,59.7,-35.7,64.5,1319.0
1786377799.1443634,-11.813,1.834,1.693,1.153,0.062,0.06,59.4,-33.75,66.3,1319.0
1786377799.1443758,-11.035,1.899,1.31,0.391,-0.186,0.047,59.85,-32.4,66.6,1319.0
1786377799.3485045,-10.039,-0.165,0.275,-0.947,0.128,-0.462,60.9,-32.25,64.5,1319.0
1786377799.3485293,-9.955,-0.077,0.39,-1.419,-0.001,-0.417,61.05,-33.15,63.15,1319.0
1786377799.348541,-10.041,-0.412,0.254,-1.853,-0.133,-0.524,60.6,-35.55,62.55,1319.0
1786377799.553607,-8.772,-1.501,-2.605,-4.102,0.27,-1.046,54.3,-48.6,35.25,1356.0
1786377799.5536313,-9.881,-1.59,-2.164,-4.024,0.223,-0.831,52.8,-49.05,31.2,1356.0
1786377799.5536425,-9.019,-2.643,-1.669,-3.481,0.322,-0.673,50.55,-47.1,28.2,1356.0
1786377799.7570853,-8.985,-2.028,-2.416,-0.302,-0.118,0.174,50.85,-40.35,15.9,42.0
1786377799.7571096,-9.172,-1.992,-2.361,-0.283,-0.021,0.07,50.55,-42.15,16.5,42.0
1786377799.7571213,-9.646,-2.148,-2.217,-0.178,0.062,-0.034,51.3,-42.9,16.05,42.0
1786377799.963574,-9.455,-1.803,-2.083,0.038,0.027,0.07,51.15,-42.6,15.9,52.0
1786377799.9635985,-9.366,-1.645,-2.229,-0.069,-0.03,0.016,52.65,-41.55,15.6,52.0
1786377799.96361,-9.538,-1.7,-2.016,-0.069,-0.032,-0.007,52.05,-43.95,16.5,52.0
1786377800.1680727,-10.341,-2.32,-1.877,1.396,-0.51,0.675,51.75,-44.4,16.5,31.0
1786377800.1680975,-10.216,-2.399,-1.762,2.091,-0.64,0.817,53.7,-45.0,18.45,31.0
1786377800.1681085,-10.475,-2.219,-1.999,3.091,-0.935,1.159,55.65,-44.55,19.65,31.0
1786377800.3727872,-8.519,0.108,0.759,4.272,0.234,0.591,61.8,-38.55,55.05,1376.0
1786377800.372813,-9.328,1.08,1.518,3.931,0.223,0.341,61.05,-37.05,60.6,1376.0
1786377800.372824,-10.396,2.552,1.051,3.169,-0.004,0.254,62.7,-33.75,62.7,1376.0
1786377800.576544,-9.814,2.157,0.773,-0.477,0.232,-0.482,61.95,-29.55,68.25,1376.0
1786377800.5765674,-9.845,1.571,0.371,-0.515,0.256,-0.551,62.4,-31.05,66.0,1376.0
1786377800.5765789,-10.163,1.444,0.381,-0.611,0.285,-0.536,63.6,-31.2,65.85,1376.0
1786377800.782175,-10.068,-1.286,-2.047,-3.647,0.6,-1.024,52.05,-48.6,33.75,1376.0
1786377800.7821996,-9.531,-1.482,-1.803,-3.476,0.252,-1.147,54.45,-47.7,32.55,127.0
1786377800.7822118,-10.02,-1.583,-2.018,-3.332,0.097,-1.153,50.85,-46.2,27.3,127.0
1786377800.9861658,-8.727,-1.508,-3.44,0.148,0.056,0.233,48.3,-39.75,11.7,48.0
1786377800.9861913,-9.321,-1.666,-3.268,0.075,-0.082,0.101,49.8,-40.95,11.4,37.0
1786377800.9862027,-9.163,-2.066,-3.112,0.048,-0.272,-0.074,48.3,-42.45,11.7,37.0
1786377801.1925306,-9.464,-2.049,-2.219,0.128,0.102,-0.102,49.8,-42.15,12.45,39.0
1786377801.1925557,-9.73,-2.035,-2.191,0.11,0.11,-0.125,49.65,-42.6,12.6,31.0
1786377801.1925676,-9.5,-2.138,-1.987,0.117,0.103,-0.072,49.5,-43.65,13.2,31.0
1786377801.3959901,-9.388,-2.195,-1.846,0.145,0.026,0.121,48.3,-43.65,15.45,41.0
1786377801.3960154,-9.632,-1.949,-2.004,0.123,0.005,0.132,49.8,-43.65,14.7,41.0
1786377801.3960268,-9.378,-1.932,-1.999,0.045,0.012,0.087,47.85,-41.85,14.4,38.0
1786377801.6011283,-9.325,-2.303,-1.839,0.011,-0.004,-0.048,48.9,-44.55,15.6,36.0
1786377801.6011531,-9.227,-2.27,-1.963,0.032,-0.005,-0.002,50.55,-44.4,15.45,36.0
1786377801.601164,-9.194,-2.184,-2.217,-0.055,0.0,0.03,50.4,-44.55,14.1,32.0
1786377801.807036,-9.627,-1.448,-1.832,0.238,-0.231,0.008,49.5,-42.9,15.0,56.0
1786377801.8070607,-9.349,-1.729,-1.676,0.289,-0.275,0.034,48.75,-43.65,15.45,56.0
1786377801.807072,-9.278,-1.915,-1.369,0.244,-0.238,0.063,50.1,-44.55,16.65,29.0
1786377802.0105395,-10.709,-2.837,-2.607,3.89,0.105,0.681,53.25,-44.4,19.8,35.0
1786377802.0105643,-9.258,-3.428,-3.115,5.02,0.123,0.996,55.2,-45.0,22.95,35.0
1786377802.0105753,-9.876,-2.653,-4.183,5.908,-0.316,1.223,58.05,-45.6,29.4,35.0
1786377802.215186,-10.965,3.481,3.086,0.517,0.16,0.053,65.55,-25.8,69.9,1334.0
1786377802.2152119,-11.509,3.754,3.067,-0.474,-0.049,-0.082,66.3,-26.25,70.95,1334.0
1786377802.2152238,-10.922,3.46,2.466,-1.223,-0.088,-0.2,66.75,-25.2,69.6,1334.0
1786377802.419659,-9.886,-3.383,-1.164,-4.057,0.885,-1.196,52.5,-43.65,35.25,1204.0
1786377802.4196844,-10.116,-3.01,-1.444,-3.201,0.488,-0.856,52.05,-43.95,30.9,1204.0
1786377802.6247296,-9.354,-3.019,-2.272,-0.18,-0.112,0.088,48.9,-42.6,20.7,45.0
1786377802.6247535,-9.148,-2.763,-2.354,-0.206,-0.155,0.078,50.85,-42.3,20.7,45.0
1786377802.6247644,-9.062,-2.732,-2.095,-0.153,-0.113,0.059,50.1,-42.6,21.15,45.0
1786377802.829718,-9.629,-2.107,-1.528,1.921,-0.618,0.972,54.3,-44.4,23.85,67.0
1786377802.8297436,-9.318,-2.519,-1.271,2.236,-0.658,0.902,54.75,-43.95,27.9,67.0
1786377802.8297544,-9.244,-2.059,-1.025,2.453,-0.594,0.76,55.05,-44.4,28.2,67.0
1786377803.0365334,-9.553,0.172,-0.464,4.86,-0.531,0.715,61.05,-36.6,62.1,1316.0
1786377803.0365715,-9.615,0.694,1.369,3.845,-0.233,0.735,61.05,-34.35,65.85,1316.0
1786377803.036578,-10.017,2.303,2.509,2.44,-0.093,0.605,60.6,-32.4,67.2,1316.0
1786377803.2352545,-9.953,-0.115,-0.364,-0.869,0.155,-0.415,63.3,-32.4,64.65,1316.0
1786377803.2465985,-9.819,-0.316,-0.565,-0.735,0.145,-0.333,63.15,-33.0,65.25,1316.0
1786377803.246617,-10.051,-0.577,-0.395,-0.709,0.065,-0.318,61.65,-32.55,63.45,1316.0
1786377803.4436731,-9.668,-1.02,-0.711,-2.878,0.623,-1.022,57.75,-43.2,52.5,1316.0
1786377803.4436975,-9.577,-0.936,-0.934,-3.128,0.708,-1.156,55.8,-44.85,47.7,1381.0
1786377803.4437087,-9.538,-1.482,-0.936,-3.3,0.831,-1.059,55.2,-46.2,45.75,1381.0
1786377803.6502042,-8.732,-2.409,-1.891,-1.233,0.134,-0.457,47.85,-46.95,27.0,1331.0
1786377803.65023,-9.002,-2.928,-1.645,-1.138,0.329,-0.475,49.8,-47.55,26.85,128.0
1786377803.6502414,-9.404,-3.29,-1.654,-0.913,0.335,-0.396,49.5,-45.9,24.9,128.0
1786377803.8538582,-9.033,-2.586,-2.725,-0.269,-0.01,0.0,47.7,-44.85,20.85,47.0
1786377803.853883,-9.316,-2.768,-2.579,-0.262,-0.088,-0.055,48.0,-44.4,22.05,47.0
1786377803.853894,-9.261,-2.952,-2.363,-0.154,-0.111,0.026,47.7,-45.15,21.6,47.0
1786377804.0578668,-9.455,-2.416,-1.707,0.171,-0.154,0.153,48.9,-45.0,22.2,61.0
1786377804.057891,-9.495,-2.342,-1.772,0.17,-0.098,0.137,50.25,-45.9,23.1,61.0
1786377804.0579019,-9.613,-2.308,-1.834,0.137,-0.086,0.153,48.6,-46.95,22.2,61.0
1786377804.2643235,-9.843,-3.191,-1.686,1.893,-0.302,0.354,52.35,-46.5,25.5,79.0
1786377804.2643492,-10.422,-3.012,-2.217,2.92,-0.421,0.288,55.5,-46.35,26.85,79.0
1786377804.2643602,-10.872,-2.538,-2.883,3.879,-0.698,0.375,54.45,-46.2,29.25,79.0
1786377804.467588,-10.307,0.438,1.583,1.717,-0.074,0.377,58.05,-39.75,61.35,1328.0
1786377804.4676163,-9.74,0.785,1.889,1.091,-0.125,0.291,58.95,-36.15,61.95,1328.0
1786377804.4676282,-9.986,0.974,1.906,0.656,-0.101,0.221,59.25,-35.85,62.55,1328.0
1786377804.6729438,-10.254,-0.508,0.441,-0.767,0.175,-0.3,59.85,-37.05,62.1,1328.0
1786377804.6729696,-10.08,-0.555,0.378,-1.097,0.052,-0.32,59.25,-37.8,60.6,1328.0
1786377804.6729808,-9.924,-0.728,0.529,-1.51,-0.102,-0.471,58.05,-37.8,59.55,1328.0
1786377804.8775928,-8.863,-2.04,-1.784,-4.097,0.63,-0.402,51.3,-48.3,34.5,1330.0
1786377804.8776178,-8.77,-2.188,-1.391,-3.735,1.062,-0.226,52.65,-47.25,29.25,1330.0
1786377804.8776295,-8.686,-2.535,-1.439,-3.204,1.348,0.023,51.9,-47.25,27.75,1330.0
1786377805.0819721,-9.012,-2.361,-2.586,-0.084,-0.227,-0.096,51.75,-44.4,20.85,49.0
1786377805.0819972,-9.055,-2.308,-2.468,-0.02,-0.026,-0.159,49.35,-46.2,21.45,49.0
1786377805.0820081,-9.364,-2.234,-2.425,0.016,0.11,-0.086,51.75,-45.15,20.1,49.0
1786377805.287696,-9.311,-1.913,-1.935,-0.02,-0.032,0.038,52.5,-45.6,20.55,47.0
1786377805.2877207,-9.689,-1.827,-2.138,-0.02,-0.073,0.096,49.8,-45.15,20.1,47.0
1786377805.2877316,-9.871,-1.729,-2.119,-0.018,-0.12,0.134,50.55,-46.35,20.1,47.0
1786377805.491468,-10.432,-2.116,-2.033,3.13,-1.074,0.948,57.9,-46.5,25.2,89.0
1786377805.4914925,-10.245,-2.069,-2.167,4.912,-1.804,1.242,58.65,-46.95,33.6,89.0
1786377805.696686,-10.324,1.46,1.037,-1.127,-0.219,-0.074,63.3,-31.95,63.9,1358.0
1786377805.6967115,-9.38,0.881,0.627,-1.18,-0.175,-0.081,60.9,-33.45,64.8,1358.0
1786377805.696723,-9.354,0.646,0.146,-1.223,-0.061,-0.288,60.6,-34.8,62.85,1358.0
1786377805.9034839,-8.99,-1.243,-0.977,-3.707,0.19,-0.876,57.0,-45.9,45.6,1456.0
1786377805.903509,-8.993,-1.358,-1.099,-3.971,0.412,-0.802,53.7,-48.0,41.7,1456.0
1786377805.9035196,-9.627,-1.846,-0.613,-3.997,0.536,-0.543,53.1,-48.9,36.9,1323.0
1786377806.1072762,-9.668,-2.057,-2.854,-0.596,-0.251,-0.352,50.1,-46.2,19.65,50.0
1786377806.107372,-9.325,-1.674,-2.502,-0.389,-0.103,-0.005,51.15,-45.0,19.95,50.0
1786377806.1073797,-8.973,-2.289,-2.605,-0.226,0.015,0.153,50.4,-45.75,18.9,33.0
1786377806.3112137,-9.342,-1.985,-2.1,0.144,-0.077,0.031,49.5,-45.15,19.5,35.0
1786377806.3112395,-9.182,-1.961,-2.03,0.142,-0.079,0.016,50.85,-46.5,21.45,35.0
1786377806.3112504,-9.354,-1.908,-1.901,0.158,-0.056,0.039,49.8,-45.9,21.6,35.0
1786377806.5195017,-9.869,-2.095,-1.693,0.253,-0.178,0.184,49.35,-46.2,21.15,59.0
1786377806.519527,-10.025,-2.148,-1.724,0.524,-0.308,0.299,51.15,-45.75,20.4,59.0
1786377806.519538,-10.092,-2.504,-1.566,0.918,-0.35,0.441,51.75,-46.65,20.1,59.0
1786377806.7178233,-7.242,-1.556,-2.421,5.33,-0.318,0.905,59.7,-45.75,46.8,1317.0
1786377806.720691,-8.121,-1.255,-1.599,4.927,0.298,0.715,59.25,-42.15,50.7,1317.0
1786377806.7207155,-9.268,-0.84,-0.998,4.466,0.501,0.393,61.95,-39.9,56.1,1317.0
1786377806.9239745,-9.831,0.733,0.086,-0.765,-0.172,0.047,63.9,-27.9,68.85,1317.0
1786377806.9239993,-9.627,0.275,0.019,-0.867,-0.138,-0.074,64.2,-29.1,67.8,1317.0
1786377806.9240108,-9.776,0.045,0.034,-1.239,0.067,-0.358,62.7,-29.1,66.3,1317.0
1786377807.129682,-9.706,-0.687,-1.386,-5.325,-0.237,-0.907,59.4,-43.8,52.05,1317.0
1786377807.1297083,-9.06,-0.9,-1.556,-5.392,-0.264,-0.92,58.5,-44.4,45.6,1317.0
1786377807.1297202,-9.409,-1.81,-0.469,-4.735,0.028,-0.582,55.95,-45.75,42.0,1317.0
1786377807.3383024,-9.646,-2.205,-1.554,0.028,0.154,-0.092,54.0,-44.85,20.1,43.0
1786377807.3383281,-9.855,-2.1,-1.417,0.121,0.156,-0.099,52.8,-46.35,19.8,43.0
1786377807.338339,-9.946,-2.042,-1.386,0.201,0.069,-0.039,52.05,-45.9,19.8,39.0
1786377807.5395136,-9.553,-1.659,-1.164,-0.014,-0.028,0.019,51.0,-45.9,21.6,35.0
1786377807.539557,-9.689,-1.805,-1.173,-0.059,-0.037,0.038,54.3,-45.9,21.3,35.0
1786377807.539563,-9.627,-1.932,-1.006,-0.062,-0.056,0.054,52.8,-45.9,20.1,48.0
1786377807.7450995,-9.536,-2.128,-1.032,0.666,0.056,0.174,52.8,-46.35,22.05,46.0
1786377807.7451246,-9.934,-1.887,-1.022,1.013,-0.036,0.255,54.45,-46.95,21.75,46.0
1786377807.7451365,-9.536,-2.112,-1.257,1.35,-0.039,0.256,54.45,-46.5,22.95,67.0
1786377807.9515104,-9.44,-0.764,-2.002,4.296,0.005,0.992,57.9,-46.95,43.2,1159.0
1786377807.9515357,-9.452,-0.692,-2.21,4.054,-0.181,0.949,60.45,-44.25,49.8,1159.0
1786377807.951547,-9.728,-0.737,-1.362,3.808,-0.24,0.916,60.3,-42.45,52.95,1367.0
1786377808.154285,-9.898,0.189,0.01,-0.694,-0.076,-0.044,61.65,-36.15,60.45,1367.0
1786377808.359389,-9.723,-1.092,-0.828,-3.738,0.411,-1.281,56.7,-46.5,46.05,1367.0
1786377808.3594146,-9.629,-1.331,-0.888,-3.618,0.365,-1.258,55.8,-47.55,43.35,1367.0
1786377808.359426,-8.99,-2.212,-1.255,-2.952,0.675,-0.987,54.0,-45.9,39.3,1328.0
1786377808.5639567,-9.019,-2.646,-3.031,-0.308,-0.074,-0.095,50.55,-45.6,27.9,95.0
1786377808.5639813,-9.06,-2.686,-3.091,-0.259,-0.045,-0.128,51.75,-48.3,27.9,95.0
1786377808.5639925,-8.945,-2.749,-2.902,-0.181,0.042,-0.102,50.55,-46.35,26.4,95.0
1786377808.7682142,-9.182,-2.425,-2.404,0.085,0.014,0.054,50.1,-46.5,27.0,94.0
1786377808.7682383,-9.268,-2.351,-2.444,0.029,-0.026,0.053,48.6,-46.95,27.0,94.0
1786377808.973477,-9.641,-2.433,-2.006,1.079,-0.478,0.703,54.15,-47.25,31.05,1127.0
1786377808.9735022,-9.984,-2.373,-2.138,1.419,-0.715,0.83,54.75,-48.6,29.7,1127.0
1786377808.973514,-9.819,-2.286,-1.966,1.838,-0.967,0.977,55.05,-47.1,31.5,1127.0
1786377809.1785095,-9.11,0.318,-0.467,4.461,-0.113,1.087,60.15,-37.2,59.4,1332.0
1786377809.1785347,-10.441,2.368,0.941,3.125,-0.042,0.734,63.3,-32.85,66.15,1332.0
1786377809.3855662,-10.044,1.628,-0.007,-1.432,0.103,-0.622,61.65,-31.05,68.85,610.0
1786377809.3856018,-9.981,1.41,0.005,-1.574,0.168,-0.771,62.55,-33.15,65.4,610.0
1786377809.385608,-10.048,0.713,0.479,-1.818,0.216,-0.899,60.6,-33.9,66.6,610.0
1786377809.5897563,-8.193,-1.561,-0.065,-3.817,0.385,-1.174,54.15,-47.25,44.25,1355.0
1786377809.5897818,-8.452,-1.973,0.22,-3.387,0.866,-1.138,54.75,-49.05,38.55,1355.0
1786377809.5897927,-8.162,-1.688,-0.503,-3.003,1.42,-1.061,53.7,-49.65,34.65,1355.0
1786377809.7927792,-8.823,-2.418,-2.279,-0.393,0.023,0.151,48.15,-48.45,24.75,92.0
1786377809.7928166,-9.024,-2.456,-2.313,-0.184,0.165,0.243,50.4,-48.45,25.2,60.0
1786377809.7928278,-9.249,-2.203,-2.406,-0.074,0.183,0.146,51.15,-48.45,23.7,60.0
1786377809.99854,-9.886,-1.669,-1.7,-0.221,0.024,0.021,50.25,-49.05,24.9,54.0
1786377809.9985769,-9.634,-1.719,-1.592,-0.221,0.014,0.121,51.6,-48.9,24.45,39.0
1786377809.9985836,-9.675,-1.544,-1.518,-0.224,-0.049,0.269,51.3,-47.85,24.15,39.0
1786377810.2023506,-9.11,-0.759,-1.537,-0.419,-0.068,0.255,53.25,-47.55,23.1,52.0
1786377810.2023761,-9.215,-0.881,-1.571,-0.58,-0.08,0.195,54.75,-47.85,21.3,59.0
1786377810.2023876,-9.558,-0.666,-1.75,-0.687,-0.07,0.261,54.0,-47.1,22.05,59.0
1786377810.40676,-10.515,-1.384,-2.559,0.257,-0.218,0.109,55.8,-46.35,18.3,47.0
1786377810.4067852,-10.216,-1.061,-2.373,0.699,-0.14,0.16,57.3,-44.85,17.25,47.0
1786377810.6116366,-10.142,1.365,0.182,3.961,0.117,0.458,64.05,-33.15,66.15,1310.0
1786377810.6116612,-11.001,2.83,1.19,2.801,-0.017,0.262,64.05,-33.15,66.15,1310.0
1786377810.6116726,-10.848,3.273,1.736,1.529,-0.139,0.251,64.8,-29.25,69.9,1310.0
1786377810.8171473,-9.809,1.374,0.122,-2.585,0.132,-1.004,63.45,-35.25,63.75,586.0
1786377810.8171716,-9.965,0.591,-0.146,-2.929,0.408,-0.95,62.7,-36.15,62.7,586.0
1786377810.8171852,-10.42,0.433,-0.144,-3.329,0.467,-0.931,59.85,-39.0,57.75,586.0
1786377811.0225792,-9.725,-1.233,-1.056,-2.764,0.586,-0.798,54.15,-48.9,29.85,1305.0
1786377811.0225978,-9.369,-1.827,-1.235,-2.477,0.486,-0.63,54.15,-49.65,28.5,1305.0
1786377811.0226038,-9.567,-1.935,-1.082,-2.052,0.434,-0.423,52.35,-48.45,25.5,1305.0
1786377811.2264137,-9.764,-2.133,-2.148,-0.163,-0.106,-0.035,51.3,-47.85,21.3,62.0
1786377811.2264416,-9.73,-2.157,-1.879,-0.023,-0.076,0.014,50.4,-47.25,21.45,62.0
1786377811.226453,-9.716,-1.966,-1.827,0.046,-0.004,0.016,51.6,-48.0,20.4,62.0
1786377811.4319408,-9.802,-1.729,-1.46,0.035,0.05,-0.02,52.8,-49.05,21.3,50.0
1786377811.4319654,-9.74,-1.765,-1.496,0.077,0.006,0.005,52.5,-46.65,22.05,50.0
1786377811.431977,-9.807,-1.583,-1.396,0.12,-0.041,0.037,51.9,-46.2,21.15,50.0
1786377811.637592,-10.206,-2.322,-1.31,1.989,-0.487,1.009,55.65,-47.25,25.5,44.0
1786377811.6376126,-9.931,-2.088,-1.609,2.637,-0.696,1.208,57.45,-48.9,25.5,44.0
1786377811.6376193,-9.682,-1.741,-1.748,3.208,-0.951,1.29,59.85,-47.1,28.65,44.0
1786377811.840326,-10.932,2.401,-0.182,4.626,-0.04,0.682,63.3,-37.5,59.1,1317.0
1786377811.8403513,-10.048,2.768,1.448,3.382,-0.012,0.305,64.65,-35.25,64.2,1317.0
1786377811.8403625,-10.523,3.199,2.433,0.993,0.103,0.053,62.4,-34.5,66.75,1317.0
1786377812.046233,-10.879,3.589,2.636,-0.29,0.002,-0.054,61.95,-33.75,66.3,1317.0
1786377812.0462573,-10.75,3.254,2.272,-1.126,-0.135,-0.134,62.85,-33.15,67.2,1317.0
1786377812.0462754,-9.974,2.591,1.688,-1.556,-0.098,-0.152,62.1,-34.8,63.9,1317.0
1786377812.2504752,-9.646,-1.942,-1.695,-1.078,0.48,-0.313,53.1,-46.2,24.45,49.0
1786377812.2505028,-10.151,-2.593,-2.035,-0.958,0.215,0.072,53.25,-47.55,24.6,49.0
1786377812.250514,-9.515,-2.002,-1.506,-0.786,0.0,-0.026,54.3,-46.35,22.8,51.0
1786377812.456838,-10.408,-1.506,-1.793,-0.568,0.127,-0.033,54.9,-44.25,18.15,42.0
1786377812.4568624,-9.799,-2.26,-1.202,-0.101,-0.074,0.162,54.9,-43.5,17.1,42.0
1786377812.6618865,-9.603,-1.379,-1.903,0.04,-0.055,-0.002,53.7,-45.75,19.65,36.0
1786377812.661912,-9.735,-1.659,-1.784,0.057,-0.038,0.055,53.7,-45.0,18.9,36.0
1786377812.6619232,-9.845,-1.817,-1.556,0.201,-0.077,0.077,53.4,-45.0,18.45,39.0
1786377812.8650959,-10.082,-1.645,-1.681,2.528,-0.796,1.081,60.6,-46.35,26.1,69.0
1786377812.8651226,-9.878,-1.53,-1.848,3.059,-1.023,1.3,62.4,-45.0,28.8,69.0
1786377812.8651335,-9.838,-0.68,-2.26,3.337,-1.509,1.275,62.7,-43.8,32.1,69.0
1786377813.0693903,-9.749,2.523,1.317,3.009,-0.305,0.907,65.55,-38.55,59.55,1365.0
1786377813.0695956,-9.969,3.464,1.346,2.753,-0.228,0.952,65.85,-35.1,63.9,1365.0
1786377813.0696023,-9.965,3.598,1.635,1.929,-0.346,0.849,66.3,-32.4,63.9,1365.0
1786377813.2721817,-9.807,2.54,1.396,-2.389,0.612,-0.971,64.95,-35.7,63.0,1365.0
1786377813.2768474,-10.06,2.533,1.111,-2.789,0.545,-1.057,66.0,-36.9,60.15,1365.0
1786377813.2769434,-9.713,2.303,0.833,-3.195,0.628,-1.148,65.55,-38.55,59.55,1365.0
1786377813.4790032,-9.73,-1.8,-0.529,-3.143,1.687,-0.962,55.5,-49.8,29.7,1102.0
1786377813.4790294,-10.039,-1.791,-0.656,-2.783,1.447,-0.787,54.0,-48.3,26.85,1102.0
1786377813.479041,-9.991,-1.76,-1.219,-2.397,1.249,-0.363,54.0,-48.3,24.15,1102.0
1786377813.6837914,-9.708,-1.817,-2.43,0.015,0.109,0.043,55.2,-44.25,15.6,34.0
1786377813.6838164,-9.699,-1.992,-2.344,0.122,-0.005,0.087,55.05,-43.65,16.5,34.0
1786377813.6838274,-9.596,-1.76,-2.282,0.186,-0.112,0.101,55.65,-44.25,17.4,34.0
1786377813.888991,-10.044,-1.611,-0.905,0.916,-0.306,0.505,55.65,-46.5,21.45,53.0
1786377813.8890164,-10.015,-1.597,-1.07,1.316,-0.361,0.631,57.15,-46.95,18.9,35.0
1786377813.8890276,-10.151,-1.044,-1.14,1.606,-0.505,0.76,57.15,-46.2,22.5,35.0
1786377814.093548,-9.131,0.129,-0.371,2.362,-1.414,0.744,62.7,-46.5,45.0,146.0
1786377814.0935934,-8.638,-0.158,0.539,2.171,-1.177,0.688,65.1,-45.9,45.6,1356.0
1786377814.298225,-9.653,3.953,0.45,1.974,-0.432,0.731,66.6,-30.15,67.95,1356.0
1786377814.298242,-9.167,4.374,2.112,1.363,-0.267,0.485,67.2,-25.65,68.85,639.0
1786377814.2982483,-9.424,4.362,2.107,0.691,-0.195,0.184,68.55,-25.8,69.45,639.0
1786377814.5025494,-9.402,2.416,0.797,-1.499,0.19,-0.766,66.3,-32.85,66.6,639.0
1786377814.5025735,-9.251,2.442,0.67,-1.916,0.283,-1.007,64.65,-34.95,63.75,639.0
1786377814.5025856,-9.182,2.049,1.164,-2.448,0.418,-1.218,65.55,-35.1,63.6,639.0
1786377814.7075,-9.29,-0.23,0.778,-3.688,-0.024,-0.096,59.25,-48.3,34.5,1384.0
1786377814.7075226,-8.42,-1.518,1.164,-2.431,0.499,-0.349,59.4,-48.45,31.35,49.0
1786377814.707534,-8.693,-1.595,0.857,-1.576,0.865,-0.409,58.65,-48.45,29.55,49.0
1786377814.9129512,-9.553,-1.255,-0.395,-0.156,-0.196,0.016,56.7,-47.25,25.5,47.0
1786377814.9129763,-9.594,-1.269,-0.342,-0.128,-0.023,-0.032,58.5,-47.85,24.9,47.0
1786377814.9129877,-9.816,-1.317,-0.206,-0.061,0.095,-0.079,56.55,-47.1,24.9,33.0
1786377815.1171138,-9.732,-0.941,0.163,0.157,0.048,0.016,56.55,-47.85,23.55,31.0
1786377815.1171386,-9.608,-0.867,0.184,0.144,-0.006,0.031,55.95,-48.0,23.55,31.0
1786377815.11715,-9.653,-0.898,0.254,0.108,-0.049,0.04,55.8,-48.3,25.35,39.0
1786377815.3220482,-9.869,-0.91,0.175,0.462,-0.057,0.161,58.65,-47.7,25.5,36.0
1786377815.322075,-9.9,-1.037,0.273,0.562,-0.072,0.155,57.75,-47.85,26.85,36.0
1786377815.5292537,-8.801,0.601,0.955,3.433,-0.208,0.902,61.95,-44.25,50.1,1396.0
1786377815.529292,-8.849,1.188,0.912,3.525,-0.029,1.099,62.55,-41.25,52.95,1396.0
1786377815.5293033,-9.694,2.066,1.068,3.524,-0.113,1.157,62.85,-39.3,57.75,1396.0
1786377815.7316718,-9.855,3.668,1.374,-0.575,0.085,-0.268,65.1,-31.65,66.9,1396.0
1786377815.7316968,-9.663,3.484,1.07,-0.727,0.13,-0.375,65.7,-31.05,64.2,1396.0
1786377815.7317085,-9.716,3.189,0.828,-1.0,0.176,-0.559,65.1,-33.15,67.2,1396.0
1786377815.935906,-10.094,1.164,0.67,-3.607,0.254,-1.257,60.15,-45.0,52.05,1411.0
1786377815.9359303,-9.85,0.862,0.711,-3.812,0.159,-1.228,59.7,-46.95,49.05,1411.0
1786377815.9359415,-9.759,-0.158,1.087,-3.699,0.106,-1.069,57.45,-48.45,44.7,1411.0
1786377816.1437657,-10.331,-1.432,-2.413,-1.232,0.167,-0.092,52.65,-50.85,26.25,35.0
1786377816.1437905,-9.419,-1.556,-0.376,-1.078,0.126,-0.026,51.0,-50.25,22.05,35.0
1786377816.1438017,-9.158,-2.021,-0.232,-0.773,0.225,0.046,54.15,-49.95,23.25,35.0
1786377816.3466494,-9.708,-1.204,-1.302,0.115,0.019,-0.036,53.25,-48.3,19.5,61.0
1786377816.346673,-9.641,-1.24,-1.209,0.02,0.03,-0.058,53.7,-48.45,21.15,61.0
1786377816.3466842,-9.766,-1.437,-0.946,-0.031,0.025,-0.008,51.6,-48.45,21.15,61.0
1786377816.5511713,-9.699,-1.319,-0.85,0.253,-0.049,0.135,52.35,-48.9,21.45,34.0
1786377816.5511968,-9.864,-1.487,-0.725,0.261,-0.132,0.13,52.65,-49.2,22.2,34.0
1786377816.551209,-9.838,-1.65,-0.187,0.338,-0.119,0.094,52.65,-49.65,23.25,34.0
1786377816.7557082,-10.259,-0.891,-1.365,3.594,-1.093,1.023,59.7,-48.45,33.3,52.0
1786377816.7557333,-9.72,-0.828,-1.41,3.966,-1.2,0.992,59.7,-49.95,33.9,1329.0
1786377816.7557445,-9.56,0.081,-1.46,3.83,-1.212,0.91,61.2,-49.65,40.65,1329.0
1786377816.9605777,-9.383,3.584,1.695,2.419,-0.042,0.359,63.45,-28.35,68.55,1329.0
1786377816.9606025,-9.855,4.113,1.946,1.309,-0.038,0.165,64.2,-27.15,71.85,1329.0
1786377816.9606135,-9.754,4.334,2.025,0.177,0.07,-0.154,65.4,-26.85,71.85,1329.0
1786377817.1676228,-9.21,0.151,-0.357,-3.8,0.4,-1.105,59.55,-45.15,51.0,1329.0
1786377817.1676574,-9.409,0.244,-0.323,-3.792,0.371,-1.284,59.55,-47.85,46.65,1329.0
1786377817.167664,-9.886,-0.136,-0.419,-3.767,0.476,-0.983,58.65,-48.45,43.95,1329.0
1786377817.3706036,-10.23,-1.075,-1.956,-1.123,0.121,0.027,52.65,-49.2,23.7,50.0
1786377817.3706286,-9.807,-1.262,-2.215,-1.046,-0.237,-0.023,52.65,-47.25,22.5,50.0
1786377817.3706398,-9.433,-1.69,-1.841,-0.734,-0.297,0.057,54.75,-48.6,21.6,50.0
1786377817.5753086,-9.622,-1.018,-1.35,-0.03,-0.112,-0.032,54.3,-46.65,21.3,59.0
1786377817.575333,-9.675,-1.192,-1.085,-0.028,-0.047,-0.018,54.75,-46.35,20.1,59.0
1786377817.5753446,-9.68,-1.31,-0.955,0.082,-0.005,0.021,54.9,-47.7,19.65,59.0
1786377817.785657,-9.694,-1.08,-1.104,0.566,-0.151,0.062,54.0,-47.85,21.6,34.0
1786377817.7856817,-9.905,-1.774,-0.869,0.789,-0.127,0.21,55.8,-48.3,22.8,34.0
1786377817.7856927,-10.218,-1.551,-0.929,1.144,-0.177,0.254,56.4,-46.95,24.0,34.0
1786377817.9910772,-8.83,-0.419,-1.403,4.451,-0.251,0.635,61.05,-44.85,47.1,1344.0
1786377817.991101,-8.622,-0.129,-0.955,4.242,0.134,0.457,61.8,-42.45,50.4,1344.0
1786377817.9911122,-8.509,-0.146,-0.486,4.081,0.552,0.288,62.7,-41.55,54.15,1344.0
1786377818.1897774,-9.309,1.372,0.666,0.546,0.077,0.006,64.35,-23.1,73.2,1344.0
1786377818.1898022,-10.022,1.396,0.395,0.097,0.117,-0.2,66.75,-21.45,72.6,1344.0
1786377818.1898136,-9.986,0.989,0.201,-0.232,0.098,-0.317,67.05,-22.8,72.0,1344.0
1786377818.3962326,-9.56,0.192,0.129,-2.431,0.177,-0.634,64.2,-31.5,65.55,615.0
1786377818.3962567,-9.744,0.309,-0.23,-3.006,0.167,-0.619,62.1,-32.85,63.15,615.0
1786377818.396278,-9.493,0.397,0.103,-3.626,0.093,-0.679,62.1,-37.05,61.8,615.0
1786377818.6010993,-9.917,-0.357,-0.347,-2.862,-0.279,0.272,58.95,-48.45,34.35,123.0
1786377818.6011248,-9.57,-0.424,-0.599,-2.558,-0.444,0.112,57.15,-48.45,32.55,123.0
1786377818.601136,-9.658,-1.168,-0.239,-2.094,-0.524,0.109,56.55,-49.5,29.4,123.0
1786377818.8064,-9.735,-0.764,0.024,-0.107,0.055,-0.162,57.45,-48.45,22.95,29.0
1786377818.8064244,-9.838,-0.795,0.103,-0.082,0.121,-0.117,57.15,-47.7,23.25,29.0
1786377818.806436,-9.838,-0.658,0.098,-0.072,0.082,-0.037,57.15,-49.65,22.5,41.0
1786377819.0083382,-9.685,-0.649,-0.045,0.183,0.033,0.078,55.8,-49.5,23.85,36.0
1786377819.008363,-9.67,-0.613,-0.139,0.211,0.073,-0.017,56.55,-49.8,23.55,36.0
1786377819.0083742,-9.957,-1.077,0.103,0.294,0.095,-0.029,56.7,-47.25,23.7,33.0
1786377819.2145126,-9.646,-1.015,0.294,1.222,-0.148,-0.033,57.45,-49.65,29.25,48.0
1786377819.214538,-9.831,-0.881,0.455,1.283,-0.247,-0.034,58.05,-50.25,30.9,48.0
1786377819.2145495,-9.78,-0.934,0.249,1.521,-0.2,0.028,58.05,-51.3,32.7,103.0
1786377819.4186592,-9.795,0.52,-1.686,4.758,0.428,0.817,63.6,-38.25,57.75,1359.0
1786377819.4186847,-9.809,0.074,-0.982,4.742,0.259,0.943,65.1,-34.8,62.55,1359.0
1786377819.4186957,-9.792,1.087,-0.922,4.544,0.067,0.983,65.7,-32.25,65.25,1359.0
1786377819.6226676,-10.403,1.434,-0.433,-0.743,0.142,-0.453,69.6,-19.65,72.0,1359.0
1786377819.6226916,-10.527,1.075,-0.907,-0.926,0.049,-0.442,69.0,-21.0,73.35,1359.0
1786377819.6227026,-10.384,0.429,-0.922,-1.149,-0.025,-0.448,68.1,-20.85,72.0,1359.0
1786377819.8280766,-9.505,-0.022,-0.527,-3.424,-0.01,-0.581,62.85,-36.6,61.35,629.0
1786377819.828102,-9.45,-0.369,-1.01,-3.694,0.096,-0.552,61.05,-39.75,57.0,629.0
1786377819.8281133,-9.826,-0.184,-0.685,-3.772,0.02,-0.65,60.45,-41.55,52.35,629.0
1786377820.0332372,-10.068,-1.319,-1.367,-1.02,0.343,-0.246,57.9,-47.25,34.35,1299.0
1786377820.0332623,-10.518,-1.228,-1.654,-0.868,0.084,-0.059,56.55,-47.85,32.25,1299.0
1786377820.033285,-10.374,-1.336,-1.446,-0.726,-0.168,0.089,57.3,-48.3,33.45,1299.0
1786377820.237618,-9.826,-1.358,-1.245,-0.167,-0.005,-0.055,55.65,-48.45,29.25,115.0
1786377820.2376375,-9.649,-1.288,-1.164,-0.097,0.048,-0.039,56.4,-49.2,29.85,115.0
1786377820.2376916,-9.61,-1.238,-1.197,-0.04,0.076,-0.027,55.5,-49.05,27.45,115.0
1786377820.4426894,-9.802,-1.173,-1.185,0.157,-0.12,0.13,56.4,-48.45,29.25,68.0
1786377820.4427137,-9.778,-1.051,-1.259,0.154,-0.074,0.097,55.95,-47.25,29.85,68.0
1786377820.4427252,-9.823,-0.936,-1.31,0.096,-0.044,0.101,56.55,-48.3,29.4,68.0
1786377820.6478474,-9.23,-1.446,-0.891,0.532,-0.156,0.154,58.65,-48.45,30.6,118.0
1786377820.6478722,-9.929,-1.293,-0.634,0.952,-0.18,0.244,58.8,-47.1,32.25,114.0
1786377820.647884,-10.262,-1.417,-0.9,1.491,-0.252,0.322,59.7,-48.0,32.85,114.0
1786377820.8525913,-9.196,1.101,0.323,4.183,0.188,0.441,67.05,-32.85,63.6,1369.0
1786377820.8526118,-10.135,2.5,1.298,2.954,0.299,0.136,65.4,-27.6,67.8,600.0
1786377820.8526185,-10.69,3.333,1.87,1.647,0.216,-0.039,64.65,-28.35,68.85,600.0
1786377821.0567174,-9.826,-0.251,-0.491,-2.514,0.257,-1.075,67.05,-30.9,66.15,600.0
1786377821.0567424,-9.515,-0.316,-0.611,-2.803,0.363,-0.989,65.7,-34.5,63.45,600.0
1786377821.0567539,-10.35,-0.239,-0.646,-2.989,0.341,-0.986,63.9,-36.9,61.2,600.0
1786377821.2618997,-9.167,-0.941,-1.085,-2.488,0.375,-0.504,57.75,-49.05,33.75,1366.0
1786377821.2619243,-10.163,-0.96,-1.099,-2.135,0.087,-0.416,55.5,-48.3,32.25,75.0
1786377821.2619357,-10.465,-1.772,-0.912,-1.714,-0.316,-0.227,55.2,-48.9,30.3,75.0
1786377821.4675407,-9.979,-1.676,-0.711,-0.163,0.126,0.077,55.05,-49.8,25.35,51.0
1786377821.4675658,-10.254,-1.463,-0.752,-0.067,0.035,0.006,56.55,-47.55,26.85,51.0
1786377821.467577,-10.192,-1.125,-0.97,-0.082,-0.03,-0.04,55.8,-48.6,26.4,52.0
1786377821.6711686,-9.744,-1.068,-0.424,-0.1,0.059,0.001,55.05,-50.25,25.65,53.0
1786377821.671193,-9.979,-1.075,-0.486,-0.04,0.011,0.035,54.0,-49.5,25.35,53.0
1786377821.671204,-9.914,-1.188,-0.426,0.042,-0.059,0.079,56.4,-48.9,26.25,52.0
1786377821.876347,-10.087,-1.377,-0.426,1.322,-0.492,0.538,57.45,-48.45,27.75,48.0
1786377821.8763726,-10.142,-1.142,-0.539,1.658,-0.723,0.627,59.7,-48.45,29.85,48.0
1786377821.8763835,-10.063,-0.67,-0.927,1.946,-0.892,0.709,59.25,-49.05,31.2,102.0
1786377822.080664,-9.404,4.068,1.899,2.517,-0.133,0.655,67.05,-30.9,65.4,1359.0
1786377822.0806887,-9.577,4.451,2.334,1.685,-0.156,0.387,67.5,-30.3,68.55,1359.0
1786377822.0807,-10.072,4.822,2.466,0.677,-0.185,0.137,65.1,-28.5,69.9,1359.0
1786377822.2854962,-9.467,2.598,0.862,-2.823,0.399,-1.14,63.45,-36.9,60.45,1359.0
1786377822.2855196,-9.304,1.494,0.986,-3.197,0.614,-1.317,62.4,-37.95,61.2,1359.0
1786377822.2855258,-9.778,1.101,0.972,-3.437,0.714,-1.386,62.1,-43.2,55.05,1359.0
1786377822.4898784,-9.517,-1.425,0.077,-1.687,0.744,-0.299,54.45,-51.15,29.85,52.0
1786377822.4898973,-9.562,-1.283,-0.347,-1.255,0.542,-0.237,55.2,-50.85,28.05,52.0
1786377822.4899037,-9.819,-1.367,-0.654,-0.89,0.339,-0.21,53.1,-50.4,28.5,52.0
1786377822.6952202,-10.23,-1.329,-0.745,0.098,0.035,0.022,54.9,-49.2,24.45,68.0
1786377822.6952455,-10.178,-1.178,-0.721,0.08,-0.065,-0.091,54.15,-50.85,24.75,68.0
1786377822.6952572,-10.029,-1.228,-0.546,0.04,-0.065,-0.04,55.2,-49.65,25.5,68.0
1786377822.906309,-9.993,-1.779,0.287,-0.109,-0.164,0.043,54.3,-49.5,26.4,67.0
1786377822.9063346,-10.309,-1.599,0.098,0.164,-0.294,0.176,52.8,-49.05,26.85,67.0
1786377822.9063463,-9.991,-1.298,-0.251,0.354,-0.391,0.253,54.15,-51.9,26.25,67.0
1786377823.1052783,-9.919,-1.192,-0.306,3.977,-1.451,1.419,62.7,-48.0,35.85,1329.0
1786377823.1053042,-9.615,-0.936,-1.142,4.628,-1.611,1.729,62.1,-47.1,37.5,1329.0
1786377823.1053157,-7.989,0.74,-1.769,4.96,-1.609,1.601,63.3,-47.85,44.1,1329.0
1786377823.3100665,-11.023,4.693,3.299,1.018,0.073,0.009,68.25,-29.1,69.3,1329.0
1786377823.3100915,-10.903,5.322,2.859,0.142,-0.078,0.045,66.45,-28.35,69.3,1329.0
1786377823.3101032,-9.993,4.767,2.138,-0.549,-0.182,-0.023,66.45,-26.85,69.6,1329.0
1786377823.5141163,-8.758,1.319,1.099,-3.066,0.469,-1.202,65.7,-36.15,61.5,1329.0
1786377823.514141,-9.301,1.068,0.852,-3.252,0.499,-1.14,65.7,-41.1,57.9,1329.0
1786377823.5141523,-9.625,1.085,0.862,-3.449,0.517,-1.09,62.7,-41.85,53.85,1408.0
1786377823.720204,-9.749,-0.924,0.062,-0.285,0.509,-0.026,56.25,-50.55,23.1,34.0
1786377823.7202287,-10.202,-1.109,0.287,-0.22,0.308,-0.026,57.9,-49.65,22.2,34.0
1786377823.7202396,-10.353,-1.192,0.12,-0.178,0.048,-0.002,56.55,-50.25,24.15,34.0
1786377823.9238555,-10.013,-0.876,0.709,0.087,-0.092,-0.034,55.5,-51.75,23.55,30.0
1786377823.92388,-9.833,-0.953,0.745,0.077,-0.193,-0.01,56.25,-48.6,24.15,30.0
1786377823.9238918,-9.826,-0.742,0.728,0.068,-0.257,0.009,55.5,-49.5,24.6,30.0
1786377824.1288342,-10.673,-1.025,0.723,3.006,-1.247,0.732,61.2,-49.65,28.05,61.0
1786377824.1288583,-10.266,-0.532,0.132,3.567,-1.551,0.873,60.6,-48.6,34.5,61.0
1786377824.1288698,-9.929,0.026,-0.168,3.932,-1.737,1.034,61.95,-48.9,37.95,61.0
1786377824.3340743,-8.868,4.312,2.962,1.875,-0.437,0.74,65.7,-33.45,64.8,1391.0
1786377824.3340993,-8.569,4.496,3.34,1.114,-0.351,0.583,65.85,-32.4,65.4,1391.0
1786377824.3341105,-8.66,4.712,3.409,0.238,-0.251,0.32,65.4,-31.8,66.75,1391.0
1786377824.5387046,-9.44,3.306,2.516,-2.702,0.477,-0.943,64.05,-35.85,61.8,1391.0
1786377824.5387294,-9.522,3.098,2.188,-3.026,0.472,-1.121,65.85,-40.95,58.8,1391.0
1786377824.5387402,-9.294,2.636,1.951,-3.332,0.593,-1.247,64.8,-40.5,56.55,1391.0
1786377824.7432876,-9.488,-1.156,1.472,-1.689,0.209,-0.159,56.25,-52.5,28.95,45.0
1786377824.743313,-9.371,-1.405,1.518,-1.156,0.145,-0.018,55.5,-52.5,28.95,45.0
1786377824.7433248,-8.811,-1.719,0.986,-0.759,0.143,0.048,54.75,-51.0,25.65,45.0
1786377824.94845,-9.84,-1.393,1.166,0.155,-0.037,0.059,55.2,-51.6,25.5,33.0
1786377824.9484782,-9.996,-1.144,1.195,0.183,0.0,0.003,56.25,-51.75,26.1,33.0
1786377824.9484897,-9.905,-0.953,1.255,0.156,0.022,-0.02,55.95,-49.65,26.55,33.0
1786377825.1533153,-9.72,-0.953,1.867,0.194,-0.02,0.088,54.9,-51.9,28.05,35.0
1786377825.1533406,-9.153,-1.128,1.982,0.337,-0.046,0.129,55.2,-52.35,28.8,35.0
1786377825.153352,-9.807,-0.812,1.877,0.445,-0.107,0.138,56.7,-51.6,28.8,35.0
1786377825.3575463,-7.336,1.616,1.018,3.764,-0.686,0.883,63.9,-44.55,50.55,1382.0
1786377825.3575697,-8.121,1.724,1.726,3.639,-0.145,0.855,64.95,-42.6,53.4,1382.0
1786377825.3575807,-8.485,2.811,1.894,3.319,0.109,0.598,66.3,-39.0,58.5,1382.0
1786377825.5628695,-9.244,3.764,2.49,-2.355,0.261,-0.809,63.9,-37.65,61.2,1382.0
1786377825.5628955,-9.112,3.187,2.073,-2.946,0.49,-1.007,64.65,-38.4,60.75,1382.0
1786377825.5629067,-9.151,2.763,1.846,-3.177,0.555,-1.109,63.3,-41.25,57.75,1466.0
1786377825.7675476,-9.567,-0.702,1.113,-2.41,1.022,-0.507,56.4,-49.65,32.55,1466.0
1786377825.767572,-9.685,-0.962,1.207,-2.03,0.865,-0.38,56.25,-52.95,31.2,1466.0
1786377825.7675831,-10.604,-1.894,0.982,-1.855,0.422,0.04,54.9,-51.6,28.8,41.0
1786377825.9724748,-9.974,-1.64,0.304,0.074,0.105,0.055,56.55,-49.8,22.35,65.0
1786377825.9724994,-10.139,-1.171,0.024,0.102,-0.04,0.015,56.25,-49.8,22.8,65.0
1786377825.9725108,-9.917,-1.006,0.115,0.023,-0.056,-0.042,54.3,-51.75,23.1,63.0
1786377826.1770577,-9.515,-1.056,1.003,0.034,-0.051,0.053,56.25,-51.3,23.1,33.0
1786377826.1770835,-9.529,-1.063,0.948,0.092,-0.044,0.057,55.05,-51.0,23.55,33.0
1786377826.1770942,-9.732,-1.132,0.97,0.209,-0.024,0.104,56.55,-50.25,23.55,33.0
1786377826.381871,-9.309,0.467,-1.532,4.434,-0.935,0.492,62.4,-48.45,39.15,68.0
1786377826.3818955,-8.65,0.527,-1.068,4.38,-0.703,0.255,61.8,-48.3,40.35,68.0
1786377826.3819067,-7.537,0.105,-0.802,4.501,0.12,0.466,62.1,-45.6,46.35,68.0
1786377826.5862544,-10.027,3.266,1.549,-0.09,-0.099,0.011,66.3,-31.2,66.15,1383.0
1786377826.58629,-9.876,3.117,1.171,-0.401,-0.112,-0.014,65.4,-31.05,66.75,1383.0
1786377826.7912488,-9.919,0.79,0.453,-3.765,-0.015,-0.718,63.6,-42.15,56.25,1383.0
1786377826.7912796,-9.718,1.013,0.256,-4.322,-0.075,-0.736,62.7,-44.25,53.1,1383.0
1786377826.791291,-9.855,0.809,0.213,-4.728,-0.105,-0.701,60.9,-46.2,48.0,1383.0
1786377826.9965484,-9.127,-1.037,-0.041,-0.441,-0.129,0.131,57.45,-50.4,24.75,35.0
1786377826.9965868,-9.05,-1.061,-0.093,-0.34,0.11,0.05,56.25,-51.0,23.1,34.0
1786377826.9965937,-9.776,-0.876,-0.326,-0.326,0.197,0.052,56.55,-50.55,24.9,34.0
1786377827.2017338,-9.687,-0.673,0.577,-0.021,-0.072,-0.065,57.75,-50.55,23.55,57.0
1786377827.2018201,-9.699,-0.73,0.651,0.037,-0.015,-0.041,56.4,-49.2,22.5,63.0
1786377827.2018325,-9.768,-0.845,0.785,0.07,-0.016,0.011,56.7,-50.85,22.2,63.0
1786377827.4052942,-10.228,-1.429,0.711,0.838,-0.174,0.158,57.45,-49.95,24.0,56.0
1786377827.4053192,-10.154,-1.281,1.13,1.286,-0.145,0.278,58.2,-49.2,25.2,35.0
1786377827.4053302,-10.254,-1.355,0.735,1.862,-0.227,0.502,59.25,-49.8,27.45,35.0
1786377827.610777,-8.739,2.128,0.026,4.361,-0.137,0.915,65.4,-40.65,55.65,1341.0
1786377827.6108017,-9.364,2.885,0.848,3.755,-0.059,0.583,65.7,-35.7,59.4,1341.0
1786377827.6108127,-9.618,3.428,1.903,3.023,0.052,0.334,65.4,-34.2,63.0,1341.0
1786377827.815084,-9.06,3.452,1.053,-0.914,0.106,-0.388,66.45,-29.85,66.3,1341.0
1786377827.8151095,-9.108,3.196,1.001,-1.098,0.228,-0.529,65.55,-31.2,64.65,1341.0
1786377827.8151207,-9.301,2.507,0.876,-1.293,0.332,-0.629,65.4,-32.55,64.2,1341.0
1786377828.0206337,-10.269,0.979,0.596,-3.972,-0.126,-0.696,59.55,-48.3,45.6,1341.0
1786377828.0206592,-9.445,0.259,0.771,-3.647,0.223,-0.497,58.65,-48.45,38.7,1354.0
1786377828.221847,-9.979,-1.183,-1.008,-0.942,0.056,-0.074,56.7,-49.95,22.95,43.0
1786377828.221871,-8.964,-1.065,0.127,-0.576,0.004,-0.132,57.75,-48.3,21.6,43.0
1786377828.2334566,-9.448,-1.097,0.608,-0.146,0.1,0.106,57.15,-47.25,22.5,48.0
1786377828.4287515,-9.867,-0.737,0.709,0.152,-0.056,-0.009,57.15,-49.2,21.45,52.0
1786377828.428776,-9.917,-0.577,0.601,0.117,-0.018,-0.019,57.9,-49.95,21.75,52.0
1786377828.633991,-9.572,-0.158,-0.105,4.173,-0.947,0.858,62.55,-47.85,38.25,1334.0
1786377828.6340168,-8.382,0.536,-0.46,4.042,-1.011,0.835,63.15,-47.7,41.25,1334.0
1786377828.6340292,-7.355,0.235,0.194,4.098,-0.448,0.813,64.35,-46.35,44.1,1334.0
1786377828.8399858,-9.699,4.623,1.877,0.085,-0.2,0.345,66.75,-28.8,67.8,1334.0
1786377828.8400102,-9.505,4.245,1.592,-0.251,-0.086,0.121,67.5,-29.55,67.5,1334.0
1786377828.840022,-9.876,3.931,1.271,-0.48,0.08,-0.202,67.05,-28.5,67.95,1334.0
1786377829.0449462,-8.665,2.325,1.396,-2.246,0.277,-0.882,66.45,-36.15,61.95,1334.0
1786377829.044971,-8.839,1.963,1.702,-2.571,0.39,-0.966,65.85,-37.05,61.05,1334.0
1786377829.044982,-9.206,1.611,1.152,-2.965,0.51,-0.998,65.7,-39.9,57.45,1334.0
1786377829.254501,-9.625,-0.302,0.524,-2.075,1.195,-0.534,56.55,-49.8,36.0,141.0
1786377829.2545257,-10.374,-0.503,0.498,-1.816,0.862,-0.436,55.5,-51.0,33.75,141.0
1786377829.2545369,-10.628,-0.589,0.117,-1.512,0.498,-0.267,57.75,-51.75,31.2,141.0
1786377829.45721,-10.125,-0.814,-0.512,-0.257,0.058,0.059,57.3,-50.55,25.35,49.0
1786377829.4572349,-10.357,-0.687,-0.247,-0.252,-0.042,0.084,56.7,-51.15,24.45,49.0
1786377829.457246,-10.312,-0.862,-0.146,-0.232,-0.134,0.09,55.8,-49.8,25.65,49.0
1786377829.6582904,-9.764,-0.783,0.304,0.11,-0.124,0.193,57.9,-50.4,24.0,42.0
1786377829.6583147,-9.586,-0.555,0.136,0.173,-0.152,0.242,56.25,-50.25,25.65,42.0
1786377829.6585011,-9.57,-0.359,0.115,0.169,-0.145,0.292,56.7,-49.65,27.0,42.0
1786377829.8632257,-9.57,-0.172,0.656,0.299,-0.102,0.285,60.6,-49.5,27.15,40.0
1786377829.8632505,-9.677,-0.345,0.637,0.581,-0.03,0.186,60.45,-48.45,26.55,40.0
1786377829.8632615,-10.151,-0.455,0.807,1.064,0.013,0.172,61.35,-49.8,28.65,40.0
1786377830.0676851,-9.254,1.343,-2.392,4.948,-0.362,0.375,66.3,-41.7,54.0,95.0
1786377830.0677106,-9.191,1.286,-1.322,4.167,-0.214,0.399,64.35,-37.05,58.05,95.0
1786377830.2745755,-9.522,1.494,0.132,-2.841,0.39,-0.691,64.95,-36.45,61.5,635.0
1786377830.2746122,-9.565,1.188,0.244,-3.169,0.388,-0.667,63.6,-39.75,58.5,635.0
1786377830.4786015,-10.01,-0.139,-0.29,-2.722,0.686,-0.265,59.55,-49.05,30.45,149.0
1786377830.478627,-9.811,-0.294,-0.302,-2.399,0.504,-0.288,57.3,-50.25,27.9,149.0
1786377830.4786384,-10.027,-0.323,-0.498,-2.022,0.347,-0.256,58.05,-49.8,26.4,149.0
1786377830.6829565,-9.503,-0.517,-1.686,-0.377,-0.201,-0.033,57.75,-45.9,15.75,33.0
1786377830.682982,-9.45,-0.654,-1.607,-0.159,0.007,-0.043,59.25,-47.1,17.55,33.0
1786377830.6829932,-9.804,-0.809,-1.372,0.088,0.133,0.018,58.95,-44.55,16.65,33.0
1786377830.88724,-10.053,-0.105,-0.175,0.121,-0.037,-0.057,58.05,-46.35,19.5,32.0
1786377830.8872652,-9.79,-0.192,-0.081,0.06,-0.084,-0.073,59.7,-46.5,17.1,32.0
1786377830.8872876,-9.811,-0.35,-0.036,-0.004,-0.111,-0.032,57.0,-46.65,20.1,32.0
1786377831.0931263,-10.379,-1.317,-1.111,2.953,-0.045,0.401,61.95,-48.0,23.25,45.0
1786377831.0931523,-10.898,-1.362,-1.597,3.809,-0.389,0.475,62.7,-46.5,27.0,45.0
1786377831.0931635,-10.597,-0.457,-2.167,4.889,-1.108,0.767,61.35,-46.35,28.95,45.0
1786377831.2984762,-9.704,3.682,1.64,1.901,-0.096,0.35,64.8,-30.45,67.95,1333.0
1786377831.298502,-10.247,4.125,2.593,0.656,-0.063,0.132,66.45,-30.3,67.8,1333.0
1786377831.298514,-10.534,4.695,2.849,-0.487,-0.147,0.02,64.05,-30.45,67.95,1333.0
1786377831.5025873,-9.907,0.74,0.153,-2.912,0.854,-0.906,63.9,-41.85,53.4,1390.0
1786377831.5026133,-9.934,0.86,-0.33,-2.92,0.631,-0.822,64.8,-43.2,51.75,1390.0
1786377831.5026243,-9.479,0.802,-0.582,-2.918,0.6,-0.667,63.3,-45.15,48.15,1390.0
1786377831.7059784,-10.503,-0.362,-0.943,-2.977,0.565,-0.334,60.45,-48.45,28.5,1331.0
1786377831.7060075,-10.29,-0.898,-0.685,-3.008,0.334,-0.243,58.95,-48.9,25.8,40.0
1786377831.9124064,-9.692,-0.515,-1.159,0.204,-0.086,0.023,60.3,-45.9,17.55,25.0
1786377831.912433,-9.634,-0.366,-1.094,0.292,0.0,0.028,59.85,-45.6,16.5,25.0
1786377831.9124455,-9.838,-0.263,-1.164,0.394,0.048,0.029,59.55,-44.85,16.05,26.0
1786377832.1163464,-10.511,-0.247,-1.324,3.917,-1.716,0.369,62.85,-45.9,32.7,34.0
1786377832.1163712,-9.562,0.23,-1.389,4.022,-1.792,0.609,63.6,-47.1,36.3,1330.0
1786377832.1163821,-9.246,0.12,-0.567,3.988,-1.637,0.839,65.4,-46.5,37.95,1330.0
1786377832.321039,-9.766,3.177,2.057,1.729,-0.097,0.312,65.55,-31.65,62.55,1330.0
1786377832.3210642,-9.967,3.845,2.109,0.958,-0.155,0.176,65.4,-31.8,65.55,1330.0
1786377832.3210754,-9.67,3.649,2.093,0.152,-0.171,0.068,65.7,-32.25,66.3,1330.0
1786377832.5265393,-9.139,1.595,0.838,-2.894,0.57,-1.113,63.3,-40.2,57.0,1330.0
1786377832.526564,-9.347,1.322,1.144,-3.29,0.726,-1.108,63.3,-40.95,54.75,1330.0
1786377832.5265749,-9.431,0.816,0.713,-3.702,0.806,-1.062,63.9,-44.55,51.6,1406.0
1786377832.7304711,-10.834,-0.496,-0.718,-1.945,0.904,0.063,57.3,-47.85,24.15,67.0
1786377832.7305982,-9.436,0.057,0.041,-1.611,0.176,0.2,58.2,-48.0,20.7,67.0
1786377832.7306173,-9.998,-0.045,-1.082,-1.17,-0.084,-0.063,57.3,-47.85,19.8,30.0
1786377832.9360487,-10.02,-0.579,-1.463,0.216,-0.17,0.034,59.55,-44.4,17.55,39.0
1786377832.9360745,-9.85,-0.29,-1.41,0.134,-0.186,-0.052,58.8,-45.6,18.0,39.0
1786377832.9360857,-9.776,-0.421,-1.07,0.091,-0.161,-0.059,58.65,-45.3,18.45,38.0
1786377833.1397784,-10.345,-0.79,-1.312,2.073,-0.228,0.342,58.8,-47.55,22.35,56.0
1786377833.1398027,-10.233,-0.594,-1.207,2.406,-0.394,0.447,61.65,-46.2,24.0,56.0
1786377833.1398137,-10.156,-0.903,-1.161,2.822,-0.629,0.49,62.85,-45.6,26.85,56.0
1786377833.3508894,-8.729,0.433,-0.476,4.325,-0.28,0.913,62.4,-41.1,54.6,1380.0
1786377833.3509145,-8.643,1.034,-0.01,4.227,-0.075,0.836,63.9,-37.65,60.45,1380.0
1786377833.350926,-10.118,2.737,0.73,4.074,-0.084,0.823,65.4,-34.5,61.2,1380.0
1786377833.5499005,-10.276,2.67,0.218,-1.723,0.142,-0.598,65.4,-28.35,66.3,599.0
1786377833.5499244,-10.032,2.301,0.134,-2.179,0.238,-0.832,65.85,-30.9,65.4,599.0
1786377833.5499358,-9.412,1.525,0.208,-2.475,0.42,-0.916,66.75,-33.0,64.5,599.0
1786377833.7547724,-9.646,1.269,0.536,-2.746,0.577,-0.986,66.3,-33.15,62.1,599.0
1786377833.7547972,-9.507,1.3,0.402,-3.022,0.662,-1.041,65.7,-37.95,61.5,599.0
1786377833.7548084,-9.859,1.006,-0.146,-3.428,0.613,-0.981,64.35,-39.75,56.25,599.0
1786377833.9592834,-10.276,-0.637,-1.204,-0.586,-0.08,-0.003,58.05,-43.95,15.75,42.0
1786377833.959309,-10.025,-1.013,-1.281,-0.482,-0.126,0.022,59.25,-44.4,16.5,33.0
1786377833.9593205,-9.943,-0.831,-1.197,-0.111,-0.003,0.019,59.4,-43.8,15.9,33.0
1786377834.1653945,-9.768,-0.919,-1.022,0.294,-0.025,0.046,59.55,-45.15,14.25,33.0
1786377834.1654196,-9.771,-0.706,-1.243,0.653,-0.015,0.048,58.65,-46.5,15.15,33.0
1786377834.1654308,-9.778,-0.57,-1.211,1.052,-0.09,0.134,58.2,-45.0,16.35,33.0
1786377834.3691263,-9.826,3.996,1.834,2.723,-0.127,0.408,65.4,-30.6,65.55,1401.0
1786377834.3692248,-9.773,4.365,2.421,1.704,-0.094,0.283,65.85,-29.7,68.7,631.0
1786377834.369237,-9.783,4.75,2.768,0.565,-0.048,-0.013,64.35,-28.2,69.15,631.0
1786377834.573971,-9.421,1.389,-0.316,-2.857,0.6,-1.026,66.6,-35.85,61.35,631.0
1786377834.5739954,-8.827,0.948,-0.069,-2.955,0.7,-0.991,65.1,-38.25,58.5,631.0
1786377834.5740066,-9.747,0.385,0.22,-3.023,0.675,-0.947,63.6,-39.3,56.25,631.0
1786377834.779087,-9.546,-0.615,-0.63,-2.384,0.346,-0.209,58.5,-47.1,29.4,1347.0
1786377834.779112,-9.534,-0.682,-0.522,-2.211,0.451,-0.138,57.75,-49.5,29.4,64.0
1786377834.7791233,-9.596,-0.611,-0.563,-1.97,0.475,-0.107,57.15,-47.7,25.5,64.0
1786377834.9826992,-10.068,-0.314,-1.178,-1.189,0.178,0.169,58.95,-44.55,18.45,45.0
1786377834.9827244,-9.888,-0.39,-0.946,-1.109,0.031,0.181,57.45,-46.5,18.45,45.0
1786377834.9827359,-10.032,-0.51,-1.343,-0.886,0.091,0.147,58.95,-45.3,17.4,45.0
1786377835.1884687,-9.972,-0.517,-0.73,1.04,-0.087,0.015,58.65,-48.0,20.7,60.0
1786377835.1884937,-9.957,-0.5,-0.493,1.175,-0.164,0.04,59.55,-47.1,22.05,60.0
1786377835.1885054,-10.259,-0.599,-0.498,1.38,-0.28,0.061,60.6,-44.85,22.35,60.0
1786377835.3932166,-8.234,0.697,-0.747,3.951,-0.904,1.016,64.65,-43.5,43.95,1332.0
1786377835.3932412,-8.708,1.168,-0.139,3.626,-0.658,0.917,65.85,-42.45,49.95,1332.0
1786377835.393252,-8.827,0.52,0.069,3.445,-0.457,0.903,65.1,-40.95,51.75,1332.0
1786377835.5988328,-9.658,3.089,1.015,0.612,-0.185,0.359,67.2,-26.85,68.55,1332.0
1786377835.5988576,-9.675,3.12,1.166,0.105,-0.074,0.131,67.35,-27.45,68.7,1332.0
1786377835.598869,-9.625,2.878,1.188,-0.271,0.034,-0.049,68.25,-28.35,67.5,1332.0
1786377835.802171,-9.177,1.358,0.955,-2.647,0.411,-1.059,65.1,-34.8,61.05,1332.0
1786377835.8021955,-8.981,0.919,0.886,-2.731,0.584,-1.076,64.8,-37.05,58.05,1332.0
1786377835.8022068,-9.189,0.785,0.618,-2.898,0.689,-1.057,63.9,-41.1,54.9,1332.0
1786377836.006898,-9.352,-0.666,-0.706,-2.662,0.943,-0.451,58.5,-47.85,33.0,183.0
1786377836.0069227,-9.886,-0.821,-0.776,-2.529,0.819,-0.301,57.9,-48.45,30.3,183.0
1786377836.0069346,-9.742,-1.116,-0.654,-2.149,0.675,-0.162,56.4,-47.25,29.55,183.0
1786377836.212341,-10.13,-0.84,-0.625,-0.279,0.081,0.13,57.0,-45.9,22.35,61.0
1786377836.2123663,-10.388,-0.335,-0.982,-0.326,0.009,0.104,58.05,-45.9,20.1,61.0
1786377836.2123778,-10.305,-0.625,0.022,-0.314,0.074,0.038,57.9,-47.25,20.7,61.0
1786377836.4172006,-10.072,-1.413,-0.824,0.838,-0.225,0.095,58.8,-46.35,20.85,33.0
1786377836.4172237,-9.799,-0.996,-0.706,1.263,-0.233,0.105,59.25,-45.9,22.05,33.0
1786377836.4172351,-10.271,-1.317,-1.065,1.808,-0.33,0.162,59.55,-47.85,23.55,33.0
1786377836.6222875,-9.337,0.254,-0.654,4.666,-0.287,1.2,64.95,-43.8,47.55,1369.0
1786377836.622315,-9.481,1.499,-1.092,4.621,-0.453,1.222,65.4,-42.3,49.35,1369.0
1786377836.6223266,-9.469,1.738,-0.558,4.311,-0.5,1.154,66.6,-39.3,56.55,1369.0
1786377836.8300815,-10.087,2.437,0.144,-2.006,-0.03,-0.471,67.8,-30.45,65.1,1369.0
1786377836.8301063,-9.27,1.671,-0.01,-2.327,0.049,-0.726,67.5,-31.05,64.8,1369.0
1786377836.830118,-8.839,1.305,-0.11,-2.512,0.259,-0.917,65.85,-33.9,63.6,1369.0
1786377837.0330052,-9.591,-0.776,0.438,-3.27,0.412,-0.901,61.2,-46.2,47.55,1381.0
1786377837.033031,-9.519,-0.967,0.182,-2.575,0.551,-0.727,60.3,-44.4,40.8,1381.0
1786377837.0330422,-9.407,-0.982,-0.419,-2.065,0.596,-0.681,60.15,-46.95,38.7,1381.0
1786377837.2373292,-9.591,-1.03,-1.551,-0.821,0.08,-0.006,55.8,-47.85,23.85,69.0
1786377837.2373548,-9.759,-1.305,-1.506,-0.596,0.114,0.036,54.9,-48.9,24.75,69.0
1786377837.2373657,-9.931,-1.374,-1.353,-0.328,0.007,0.057,54.45,-48.45,22.95,69.0
1786377837.4509368,-9.996,-0.912,-1.087,-0.006,0.062,0.04,55.5,-48.3,23.55,46.0
1786377837.4509616,-10.149,-0.883,-1.027,-0.014,0.001,-0.018,54.3,-47.55,23.1,46.0
1786377837.4509733,-10.405,-0.893,-0.797,0.019,-0.14,-0.021,55.65,-48.0,24.45,46.0
1786377837.6462603,-9.699,-0.287,-2.533,5.06,-1.061,1.11,61.8,-46.35,37.05,172.0
1786377837.6462984,-8.08,-1.073,-1.92,5.61,-0.844,1.279,65.1,-43.65,43.65,172.0
1786377837.6463094,-7.992,0.309,-2.246,5.516,-0.485,1.301,64.05,-43.95,46.65,172.0
1786377837.8509982,-9.869,3.704,1.317,-0.106,-0.097,0.143,65.7,-24.15,71.55,626.0
1786377837.8510234,-9.85,2.552,0.543,-0.599,-0.113,-0.016,66.3,-25.5,70.2,626.0
1786377837.8510346,-10.015,2.346,0.194,-0.933,-0.014,-0.224,64.95,-26.1,69.3,626.0
1786377838.056901,-9.388,0.038,-0.144,-3.772,0.139,-0.951,63.45,-38.85,59.7,626.0
1786377838.0569253,-9.148,-0.057,-0.385,-3.88,0.321,-0.808,61.2,-43.5,53.4,626.0
1786377838.0569365,-8.768,-0.204,-0.603,-3.905,0.499,-0.636,63.15,-43.5,51.6,626.0
1786377838.2615244,-10.424,-0.67,-1.762,-1.202,0.318,-0.011,56.7,-48.9,30.3,207.0
1786377838.2615497,-10.017,-0.915,-1.784,-0.93,0.034,0.057,56.4,-49.65,28.5,207.0
1786377838.261561,-9.742,-1.008,-1.788,-0.527,-0.241,0.194,57.15,-48.9,28.5,207.0
1786377838.464488,-10.113,-0.345,-0.773,0.077,-0.081,0.024,58.05,-48.6,28.95,107.0
1786377838.4645126,-9.814,-0.479,-0.596,0.074,-0.073,0.013,57.75,-48.3,29.7,107.0
1786377838.4645236,-9.984,-0.409,-0.618,0.073,-0.087,0.026,56.4,-49.8,29.4,117.0
1786377838.6728203,-9.869,-0.496,-0.62,-0.146,-0.005,-0.03,57.75,-48.6,28.2,116.0
1786377838.6728442,-9.843,-0.548,-0.733,-0.117,-0.001,-0.021,58.5,-50.25,27.9,113.0
1786377838.6728566,-9.787,-0.611,-0.754,-0.068,0.034,0.001,59.4,-47.7,27.75,113.0
1786377838.8824952,-10.017,-0.421,-0.845,0.037,-0.033,-0.012,58.05,-48.6,28.65,104.0
1786377838.8825212,-9.962,-0.448,-0.757,0.012,-0.061,-0.001,57.3,-48.3,28.2,118.0
1786377838.8825328,-9.828,-0.402,-0.613,-0.01,-0.08,0.012,58.65,-49.2,29.25,118.0
1786377839.0807962,-9.797,-0.46,-0.601,-0.319,0.23,-0.066,58.05,-49.05,28.2,116.0
1786377839.0808213,-9.622,-0.752,-0.584,-0.163,0.274,-0.042,58.2,-49.2,28.05,116.0
1786377839.0808325,-9.689,-0.802,-0.788,0.071,0.266,0.027,58.5,-49.05,27.9,99.0
1786377839.284333,-9.28,-0.373,-3.955,4.757,-0.095,1.112,64.95,-44.25,43.2,1313.0
1786377839.2843585,-8.461,-1.001,-3.191,4.892,-0.231,1.197,66.45,-41.55,46.5,1313.0
1786377839.2843695,-9.203,-0.201,-3.165,4.695,-0.488,1.134,66.6,-39.75,54.0,1313.0
1786377839.488713,-9.917,3.23,0.881,-2.217,-0.356,-0.034,67.2,-27.9,68.85,1313.0
1786377839.4887383,-9.838,2.796,0.563,-2.921,-0.214,-0.369,66.3,-32.4,64.65,1313.0
1786377839.4887495,-9.225,2.389,-0.019,-3.349,0.04,-0.634,65.85,-31.65,65.1,1313.0
1786377839.6938496,-9.577,0.055,-1.056,-2.967,0.698,-0.335,61.65,-48.9,36.15,1361.0
1786377839.6938753,-8.827,-0.577,-0.809,-2.491,0.611,-0.342,60.9,-48.9,32.55,1361.0
1786377839.6938863,-9.867,-0.824,-0.831,-1.912,0.472,-0.426,60.15,-48.0,29.85,94.0
1786377839.8993204,-9.728,-0.84,-1.051,-0.699,-0.161,0.105,58.95,-47.25,24.75,37.0
1786377839.8993444,-9.414,-0.172,-1.312,-0.724,0.01,-0.024,59.85,-47.55,23.1,37.0
1786377840.1033256,-9.934,-0.22,-1.307,0.568,-0.021,0.193,59.4,-45.75,18.9,54.0
1786377840.1033509,-9.017,-1.144,-1.25,0.77,-0.132,0.267,60.15,-45.3,18.9,54.0
1786377840.103362,-10.228,-0.658,-1.135,1.325,-0.368,0.485,59.55,-46.35,20.1,54.0
1786377840.3088527,-9.833,1.322,-1.511,4.192,-1.062,0.434,66.0,-46.5,40.2,1326.0
1786377840.3088782,-9.352,1.374,-1.712,4.231,-0.806,0.416,66.6,-43.65,44.85,1326.0
1786377840.3088892,-9.335,0.996,-1.247,4.077,-0.52,0.615,65.55,-43.65,48.45,1326.0
1786377840.5132341,-9.591,3.208,1.432,-0.797,-0.044,-0.186,64.05,-35.55,63.15,1326.0
1786377840.5132592,-9.483,2.705,1.202,-1.335,-0.036,-0.348,64.35,-33.9,62.85,1326.0
1786377840.5132806,-9.421,2.526,0.778,-1.883,0.123,-0.608,63.6,-35.55,61.8,1326.0
1786377840.7189867,-9.677,0.211,-1.183,-3.561,0.566,-0.724,59.25,-48.3,39.0,1318.0
1786377840.719012,-9.574,-0.204,-0.953,-3.678,0.445,-0.576,58.5,-49.05,36.0,1318.0
1786377840.7190247,-9.282,-0.419,-0.881,-3.506,0.506,-0.52,57.45,-49.95,31.8,1318.0
1786377840.922553,-9.531,-0.476,-1.525,-1.039,0.213,0.276,57.3,-47.55,19.5,54.0
1786377840.9225779,-9.433,-0.838,-1.362,-1.041,-0.008,0.248,55.8,-45.9,18.0,59.0
1786377840.9225895,-10.211,-0.716,-1.537,-0.776,0.03,0.145,57.75,-46.35,16.8,59.0
1786377841.1281843,-9.883,-0.187,-1.439,0.419,-0.009,0.131,57.15,-46.5,16.65,36.0
1786377841.128211,-9.565,-0.227,-1.25,0.455,-0.093,0.1,58.8,-45.6,15.75,41.0
1786377841.1283023,-9.761,-0.426,-1.264,0.642,-0.2,0.11,57.0,-47.1,16.5,41.0
1786377841.3402398,-9.874,-0.615,-0.754,4.044,-1.459,0.319,62.1,-47.55,28.95,41.0
1786377841.539409,-9.294,4.98,2.538,1.013,-0.076,0.324,66.0,-29.1,66.0,1322.0
1786377841.5394335,-9.673,5.229,2.84,-0.231,0.06,-0.023,65.7,-29.85,67.8,1322.0
1786377841.5394452,-9.835,4.803,2.715,-1.572,0.112,-0.278,66.0,-28.8,67.05,1322.0
1786377841.744681,-9.491,1.197,0.73,-0.849,0.108,-0.235,66.3,-41.25,53.7,1392.0
1786377841.7447054,-9.254,1.346,0.627,-0.93,0.026,-0.159,66.3,-41.25,53.7,1392.0
1786377841.7447166,-9.297,1.276,0.673,-1.199,0.011,-0.171,66.0,-40.65,52.8,1392.0
1786377841.9475257,-10.597,0.034,-0.812,-4.081,2.554,0.146,57.75,-49.8,25.65,62.0
1786377841.9475513,-11.198,0.062,-0.646,-3.555,2.023,0.277,55.95,-48.45,21.75,62.0
1786377841.9475625,-10.908,9.641,3.306,-3.123,1.051,0.308,55.8,-47.85,20.55,62.0
1786377842.1505334,-10.156,-0.01,-1.961,0.047,-0.41,0.122,59.55,-43.95,14.25,26.0
1786377842.3560476,-9.606,0.278,-1.046,1.552,-0.503,0.418,61.65,-44.55,20.4,54.0
1786377842.3560727,-9.627,0.46,-1.192,1.729,-0.573,0.458,61.65,-46.95,21.15,54.0
1786377842.3560836,-9.938,0.8,-1.049,1.896,-0.682,0.411,64.35,-47.1,23.55,54.0
1786377842.5609431,-9.4,1.975,-0.005,2.236,-0.774,0.31,65.7,-45.3,42.45,1317.0
1786377842.5609674,-9.237,1.484,0.62,1.974,-0.567,0.347,67.2,-45.0,43.5,1317.0
1786377842.5609782,-9.491,1.733,0.867,1.691,-0.467,0.275,66.3,-42.9,45.6,1317.0
1786377842.7679849,-9.704,2.047,1.238,-1.378,0.211,-0.48,63.9,-46.5,48.0,1384.0
1786377842.7680085,-9.663,1.702,1.02,-1.611,0.283,-0.615,64.65,-45.75,48.0,1384.0
1786377842.7680194,-9.517,1.46,0.946,-1.821,0.418,-0.674,65.55,-46.65,45.6,1384.0
1786377842.9711783,-9.708,-0.239,-0.163,-2.131,1.57,-0.599,57.45,-50.85,26.55,44.0
1786377842.9712033,-9.536,-0.522,-0.474,-1.971,1.624,-0.521,57.15,-49.65,25.2,44.0
1786377842.9712145,-9.859,-0.553,-0.895,-1.683,1.62,-0.334,57.9,-49.2,23.25,44.0
1786377843.175568,-9.852,-0.675,-2.538,0.256,-0.206,0.218,56.4,-46.5,17.4,63.0
1786377843.1755922,-9.862,-0.982,-2.368,0.577,-0.306,0.19,55.8,-46.35,19.05,63.0
1786377843.3805509,-8.361,2.473,0.141,4.378,-0.7,1.275,65.7,-37.2,56.85,1337.0
1786377843.3805764,-8.095,3.802,1.204,3.965,-0.334,0.946,65.1,-36.3,62.55,1337.0
1786377843.380588,-9.471,4.029,1.736,3.28,-0.115,0.546,65.7,-33.45,63.75,1337.0
1786377843.5876157,-9.471,2.749,0.725,-3.152,0.702,-1.05,63.3,-36.6,61.05,1337.0
1786377843.5876408,-8.964,2.284,0.4,-3.338,0.982,-1.125,64.35,-39.3,56.55,1337.0
1786377843.5876524,-9.656,1.69,0.311,-3.311,1.084,-1.109,64.35,-40.2,53.7,1440.0
1786377843.796674,-9.625,-0.335,-0.342,-1.035,0.548,-0.304,62.4,-47.7,34.65,1329.0
1786377843.7966988,-9.823,-0.929,-0.254,-0.675,0.422,-0.179,61.2,-47.7,33.3,1329.0
1786377843.7967107,-10.264,-0.541,-0.302,-0.496,0.18,-0.071,61.2,-48.45,34.35,1229.0
1786377843.9954858,-10.285,0.038,-0.457,-0.986,0.541,-0.479,59.25,-49.8,31.5,132.0
1786377843.9955106,-9.984,0.163,-0.632,-1.293,0.551,-0.566,57.9,-49.65,28.5,132.0
1786377843.9955218,-9.776,-0.115,-0.496,-1.573,0.643,-0.493,58.95,-48.9,28.05,132.0
1786377844.2010229,-9.756,-0.215,-2.052,-0.634,0.527,0.462,60.15,-42.3,15.15,31.0
1786377844.2010481,-9.603,-0.01,-1.688,-0.859,0.09,0.339,56.7,-44.55,15.15,31.0
1786377844.2010596,-10.57,-0.599,-1.772,-0.568,-0.042,0.223,59.85,-43.65,12.75,31.0
1786377844.4053407,-10.068,0.354,-1.927,1.569,-0.546,0.409,60.6,-43.2,14.7,19.0
1786377844.4053662,-9.457,0.745,-1.944,1.68,-0.647,0.357,60.6,-43.2,18.3,19.0
1786377844.4053774,-9.282,0.56,-1.738,1.685,-0.65,0.303,63.9,-46.5,18.15,19.0
1786377844.6098537,-9.553,1.786,-1.135,2.406,-1.43,0.317,68.1,-47.1,35.25,49.0
1786377844.609878,-9.692,1.334,-0.383,2.043,-1.449,0.253,66.3,-46.35,36.3,49.0
1786377844.609889,-9.615,1.621,-0.065,1.548,-1.332,0.283,65.7,-46.95,39.9,49.0
1786377844.8150861,-9.792,1.829,1.59,-1.0,0.401,-0.313,64.65,-45.0,41.25,1351.0
1786377844.8151107,-9.922,1.681,1.317,-1.021,0.456,-0.37,64.05,-45.9,42.3,1351.0
1786377845.0194907,-9.855,-0.362,-1.602,-2.019,1.478,-0.199,53.55,-48.3,19.5,60.0
1786377845.0195165,-15.486,-7.427,-6.419,-2.015,1.043,0.187,53.7,-48.0,17.1,53.0
1786377845.0195274,-10.29,-1.695,-2.935,-1.538,0.946,0.145,54.45,-47.7,15.15,53.0
1786377845.2230957,-9.414,0.204,-3.187,0.038,-0.031,0.046,57.3,-40.5,6.9,27.0
1786377845.22312,-9.538,0.175,-3.086,0.087,-0.063,0.016,56.4,-41.55,7.5,20.0
1786377845.2231317,-9.675,0.048,-2.842,0.19,-0.102,-0.008,57.15,-42.3,7.8,20.0
1786377845.428667,-10.343,-0.16,-2.294,2.397,-0.631,0.284,59.7,-43.05,14.4,33.0
1786377845.4286919,-9.826,-0.371,-2.315,2.747,-0.749,0.503,62.4,-43.05,17.7,54.0
1786377845.428703,-10.104,-0.481,-2.205,3.165,-0.983,0.467,61.65,-45.75,21.15,54.0
1786377845.6332157,-9.311,1.343,-1.274,3.738,-0.979,1.358,66.6,-40.2,52.5,1315.0
1786377845.6332412,-8.679,2.15,0.826,3.112,-0.728,0.954,67.35,-36.6,55.8,1315.0
1786377845.6332521,-9.187,2.641,1.255,2.369,-0.486,1.081,66.6,-35.85,60.3,1315.0
1786377845.8380535,-9.9,2.964,1.29,-1.927,0.352,-0.78,68.55,-31.2,62.1,1315.0
1786377845.8380768,-10.214,2.698,0.795,-2.766,0.556,-1.1,67.2,-36.45,59.7,1315.0
1786377845.8380883,-9.984,2.648,0.146,-3.557,0.644,-1.295,67.05,-38.25,55.05,1315.0
1786377846.0433183,-9.62,-1.025,-0.309,-3.306,1.485,-0.632,56.55,-47.1,25.65,1321.0
1786377846.0433438,-10.487,-1.255,-0.613,-2.247,0.936,-0.372,57.45,-49.2,25.2,1321.0
1786377846.0433567,-9.984,-1.137,-1.199,-1.639,0.485,-0.162,55.65,-48.45,21.75,35.0
1786377846.24834,-10.187,-1.037,-1.93,-0.035,-0.084,0.062,58.2,-46.2,18.45,58.0
1786377846.2483644,-10.106,-0.663,-1.978,0.011,-0.111,0.054,56.55,-45.9,17.55,58.0
1786377846.248376,-10.295,-0.536,-1.793,0.043,-0.085,0.061,55.95,-45.75,18.9,58.0
1786377846.4535203,-9.95,-0.481,-0.622,0.769,-0.545,0.178,57.45,-46.5,20.7,55.0
1786377846.4535446,-10.163,-0.747,-0.543,1.362,-0.659,0.308,58.65,-46.95,21.15,47.0
1786377846.453556,-10.245,-0.797,-0.431,1.797,-0.809,0.432,61.65,-46.95,24.0,47.0
1786377846.6576605,-8.332,2.861,1.927,2.619,-0.36,0.778,66.75,-38.85,55.65,1393.0
1786377846.6576855,-8.756,3.103,2.641,2.265,-0.142,0.662,66.3,-33.9,58.8,1393.0
1786377846.6576967,-9.541,3.792,2.227,1.838,-0.174,0.567,66.75,-33.0,60.75,1393.0
1786377846.8622148,-9.194,3.488,2.054,-1.413,0.372,-0.658,65.7,-33.0,63.0,1393.0
1786377846.8622391,-9.445,3.424,1.793,-1.626,0.378,-0.793,66.6,-33.15,62.1,1393.0
1786377846.862251,-9.771,3.103,1.525,-2.031,0.428,-0.934,67.2,-35.25,60.15,1393.0
1786377847.0670688,-8.557,0.22,0.354,-3.692,1.859,-0.662,61.65,-48.9,32.55,123.0
1786377847.0670936,-9.91,-0.376,0.445,-3.346,1.828,-0.296,59.4,-49.95,29.55,123.0
1786377847.067105,-9.742,-0.831,0.472,-2.727,1.579,0.081,59.55,-48.6,27.15,123.0
1786377847.482986,-9.515,0.069,-0.263,0.074,-0.094,-0.04,59.25,-46.35,19.5,60.0
1786377847.4830117,-9.603,0.041,-0.168,0.066,-0.016,-0.002,59.55,-47.1,19.5,60.0
1786377847.4830234,-9.833,0.0,-0.113,0.069,0.006,0.026,59.85,-46.65,19.5,60.0
1786377847.6831782,-9.998,0.136,-0.699,-0.172,0.076,-0.121,58.8,-46.65,19.05,55.0
1786377847.6832032,-9.802,-0.304,-0.759,-0.316,0.042,-0.209,58.8,-44.4,20.85,57.0
1786377847.6832142,-9.697,-0.278,-0.922,-0.395,0.086,-0.105,58.2,-46.2,19.65,57.0
1786377847.88572,-8.554,-1.077,-1.077,1.281,-0.136,0.136,60.3,-45.15,19.05,47.0
1786377847.8857439,-10.503,-1.018,-0.977,2.498,-0.374,0.615,63.6,-46.35,22.35,32.0
1786377847.885755,-10.051,-0.953,-1.223,3.126,-0.66,0.777,63.6,-46.35,23.85,32.0
1786377848.0908515,-9.072,1.896,0.551,3.497,-0.321,0.807,66.45,-39.6,55.35,1320.0
1786377848.0908766,-9.258,2.31,1.262,2.599,-0.342,0.493,66.45,-36.45,56.85,1320.0
1786377848.0908873,-9.38,3.01,1.844,1.651,-0.244,0.316,67.35,-37.05,61.35,1320.0
1786377848.3018668,-9.4,0.651,0.673,-2.711,0.849,-0.816,66.0,-44.55,44.25,1385.0
1786377848.301892,-9.476,0.472,0.081,-2.578,0.877,-0.81,64.95,-45.3,42.45,1385.0
1786377848.3019028,-9.699,0.134,0.136,-2.391,0.931,-0.631,63.3,-46.65,38.55,1385.0
1786377848.5003827,-9.802,-0.366,-0.876,-1.778,0.48,-0.04,58.65,-45.75,22.5,41.0
1786377848.5005655,-10.357,-0.637,-0.335,-1.575,0.428,-0.162,59.85,-45.9,21.6,41.0
1786377848.5005736,-9.883,-0.5,-0.95,-1.434,0.35,-0.218,60.9,-45.75,19.95,41.0
1786377848.7052565,-10.075,-0.395,-1.221,0.352,-0.046,0.27,60.45,-43.05,15.9,32.0
1786377848.7053664,-9.536,-0.089,-1.575,0.764,-0.04,0.423,61.05,-43.65,16.05,32.0
1786377848.7053785,-10.285,-1.865,-1.147,1.325,-0.101,0.553,63.3,-45.15,16.05,32.0
1786377848.9107504,-10.072,-0.108,-0.522,3.86,-0.815,0.531,69.3,-44.85,31.5,69.0
1786377848.910776,-11.344,0.663,-2.181,4.776,-1.479,0.438,71.25,-42.6,37.95,69.0
1786377848.9107866,-9.462,1.836,-2.67,5.125,-1.705,0.385,70.05,-43.2,40.8,69.0
1786377849.1152015,-9.637,4.717,3.033,-2.014,0.006,-0.501,65.4,-32.55,68.55,597.0
1786377849.1152272,-9.27,3.977,2.547,-2.605,0.123,-0.579,64.95,-33.0,66.3,597.0
1786377849.1152384,-9.965,3.39,1.817,-2.946,0.048,-0.61,65.1,-33.6,62.85,597.0
1786377849.3199875,-9.397,-0.144,-0.613,-2.839,1.348,-0.591,63.45,-47.25,37.65,1328.0
1786377849.320013,-10.106,0.0,-0.941,-2.683,1.161,-0.523,64.65,-46.95,35.85,1328.0
1786377849.5239103,-9.814,-0.263,-1.46,-0.899,0.144,0.068,60.15,-43.8,13.35,31.0
1786377849.7288046,-10.575,-2.174,-1.707,1.984,-0.134,0.2,61.65,-42.6,17.1,38.0
1786377849.72883,-9.85,-0.192,-2.018,2.614,-0.13,0.419,63.45,-43.8,16.65,38.0
1786377849.728842,-9.761,-0.29,-1.788,3.153,-0.226,0.491,64.8,-44.85,18.3,38.0
1786377849.9344556,-10.142,3.979,2.571,0.013,0.049,-0.232,64.95,-35.25,62.25,1232.0
1786377849.9344842,-10.257,3.553,2.571,-1.081,-0.024,-0.434,63.3,-36.3,63.6,1232.0
1786377849.9344954,-9.96,2.765,1.559,-2.34,0.178,-0.467,62.7,-37.2,61.95,1232.0
1786377850.1385398,-10.02,-0.17,-0.268,-3.325,0.336,-0.943,59.55,-48.3,38.25,1377.0
1786377850.1385634,-9.069,-0.239,-0.39,-2.932,0.761,-0.788,58.8,-49.05,33.75,1377.0
1786377850.1385746,-9.692,-1.221,-0.448,-2.536,1.108,-0.705,57.3,-47.85,30.9,1377.0
1786377850.3436725,-9.112,-1.178,-1.374,0.021,-0.295,-0.011,57.75,-47.85,24.6,48.0
1786377850.3436968,-9.254,-1.219,-1.188,0.032,-0.21,0.012,57.75,-48.3,23.55,48.0
1786377850.3437083,-9.555,-1.384,-0.833,0.098,-0.165,0.084,56.4,-46.95,24.45,46.0
1786377850.548733,-9.926,-0.869,0.314,0.239,-0.157,0.042,57.15,-48.9,27.0,49.0
1786377850.5487583,-10.029,-0.752,0.196,0.168,-0.147,0.004,57.3,-49.5,25.65,49.0
1786377850.54877,-10.005,-0.532,0.268,0.093,-0.124,0.002,57.0,-49.5,26.1,49.0
1786377850.7528164,-9.831,-1.07,0.148,-0.132,-0.004,-0.037,58.5,-47.55,28.2,49.0
1786377850.7528412,-9.831,-1.07,0.0,-0.051,0.048,-0.043,56.25,-49.05,26.1,49.0
1786377850.7528527,-9.912,-0.958,-0.074,-0.043,0.071,-0.07,56.4,-48.0,27.0,47.0
1786377850.9583166,-9.637,-1.458,-0.12,0.149,0.111,0.137,54.45,-48.45,26.55,48.0
1786377850.9583426,-9.723,-1.669,-0.115,0.53,0.047,0.268,57.3,-49.05,27.15,48.0
1786377850.9583538,-9.68,-1.8,-0.213,1.045,0.005,0.429,57.15,-48.45,26.25,48.0
1786377851.162722,-7.235,0.548,-2.025,5.49,-1.1,1.452,67.95,-42.3,50.1,1357.0
1786377851.1627464,-8.614,1.173,-0.821,4.826,-0.716,1.112,65.85,-37.8,59.1,1357.0
1786377851.162758,-8.102,2.375,0.754,3.386,-0.345,0.627,65.55,-34.35,62.55,1357.0
1786377851.3677385,-8.691,0.424,-0.261,-3.82,1.257,-1.262,63.6,-43.65,50.7,644.0
1786377851.572605,-10.092,-1.274,-2.071,-0.43,-0.161,0.046,55.65,-46.35,24.15,50.0
1786377851.57263,-9.996,-1.432,-2.04,-0.257,-0.341,0.043,57.45,-46.5,23.7,52.0
1786377851.5726416,-9.981,-1.46,-1.834,-0.127,-0.402,0.115,57.15,-46.95,24.0,52.0
1786377851.7770395,-9.799,-0.654,-0.247,0.333,-0.306,0.059,58.65,-46.2,26.55,47.0
1786377851.7770655,-9.725,-0.642,-0.266,0.289,-0.348,0.017,57.45,-48.0,25.8,48.0
1786377851.777077,-9.627,-0.558,-0.113,0.197,-0.334,-0.003,58.5,-47.1,26.1,48.0
1786377851.98218,-10.252,-0.637,-0.103,-0.53,0.152,-0.236,57.3,-47.55,26.85,58.0
1786377851.9822052,-10.259,-0.632,-0.204,-0.686,0.228,-0.247,55.8,-47.85,24.15,37.0
1786377851.9822166,-10.281,-0.591,-0.467,-0.856,0.287,-0.286,56.55,-48.3,26.1,37.0
1786377852.1866717,-9.574,-1.132,-1.233,-0.522,0.13,0.144,55.8,-46.35,15.45,56.0
1786377852.1866963,-9.531,-1.183,-1.508,-0.187,0.087,0.238,54.3,-46.65,16.5,21.0
1786377852.1867075,-9.369,-1.063,-1.525,0.102,0.121,0.328,56.7,-45.75,14.85,21.0
1786377852.3916845,-9.728,-1.12,-0.582,0.384,-0.18,0.012,57.9,-46.95,19.95,38.0
1786377852.391709,-9.922,-1.089,-0.383,0.293,-0.21,-0.037,56.25,-47.1,18.3,48.0
1786377852.3917208,-9.689,-0.941,-0.148,0.154,-0.236,0.043,56.7,-48.45,19.65,48.0
1786377852.5967212,-9.799,-0.917,-0.108,-0.541,-0.175,0.473,59.25,-46.35,19.05,47.0
1786377852.5967462,-9.658,-1.3,0.211,-0.296,-0.166,0.518,58.95,-46.95,19.2,47.0
1786377852.5967577,-9.644,-1.379,0.026,0.386,0.004,0.359,59.25,-44.85,17.55,50.0
1786377852.8014178,-9.665,1.444,-3.256,4.987,-1.442,1.552,71.55,-45.15,34.95,62.0
1786377852.8014421,-9.531,3.091,-3.809,4.992,-1.944,1.362,69.45,-44.25,38.4,62.0
1786377852.8014543,-7.92,3.761,-2.873,3.884,-1.549,1.075,70.8,-43.65,45.9,1297.0
1786377853.0052187,-7.702,3.306,1.525,-1.652,-0.25,-1.385,65.7,-39.6,60.75,1297.0
1786377853.0052445,-8.471,2.514,1.343,-1.853,-0.052,-1.424,65.1,-40.5,59.55,1297.0
1786377853.2106757,-8.586,-1.01,1.446,-0.953,-0.079,-0.722,53.4,-49.65,42.75,1361.0
1786377853.2107,-7.774,-1.427,1.496,-1.2,0.105,-0.837,52.65,-49.65,40.95,1361.0
1786377853.210711,-7.86,-1.903,1.468,-1.335,0.411,-0.805,51.75,-50.25,39.6,1361.0
1786377853.6247475,-10.568,-1.405,-0.417,-0.38,-0.214,0.354,54.0,-47.85,16.05,31.0
1786377853.6247725,-10.434,-1.47,-0.613,-0.134,-0.201,0.236,54.0,-49.05,15.75,31.0
1786377853.6247838,-10.113,-1.164,-0.773,0.041,-0.191,0.127,55.65,-48.9,17.1,31.0
1786377853.8260643,-9.708,-0.709,0.215,0.161,-0.241,0.088,54.45,-48.9,17.4,40.0
1786377853.8260903,-9.946,-0.828,0.46,0.1,-0.225,0.122,56.4,-48.45,18.45,40.0
1786377853.826102,-10.044,-0.881,0.512,0.051,-0.184,0.146,56.4,-49.2,17.4,40.0
1786377854.0300672,-9.749,-0.577,0.436,0.042,0.028,-0.038,56.4,-48.9,17.4,35.0
1786377854.0300927,-9.902,-0.625,0.438,0.021,-0.03,-0.092,55.8,-47.85,19.05,35.0
1786377854.0301046,-9.795,-0.745,0.532,0.005,-0.044,-0.07,58.5,-49.05,17.25,35.0
1786377854.2355778,-9.819,-0.783,0.522,-0.049,-0.086,0.02,55.8,-48.6,16.8,46.0
1786377854.235603,-9.843,-0.752,0.448,-0.01,-0.063,-0.021,57.15,-49.95,18.15,46.0
1786377854.2356143,-9.797,-0.709,0.515,0.01,-0.038,-0.018,56.55,-48.3,19.5,46.0
1786377854.4392228,-9.843,-0.886,0.498,0.029,-0.002,0.005,56.7,-49.95,19.2,33.0
1786377854.439248,-9.859,-0.802,0.52,0.056,0.036,-0.002,56.55,-49.5,18.75,40.0
1786377854.4392593,-9.9,-0.721,0.484,0.014,0.048,-0.038,55.8,-49.05,18.3,40.0
1786377854.6449718,-9.802,-0.759,0.488,-0.036,0.032,-0.014,57.0,-49.5,18.3,36.0
1786377854.6449971,-9.78,-0.833,0.443,-0.02,0.011,-0.001,57.0,-49.8,19.05,27.0
1786377854.645008,-9.807,-0.706,0.314,-0.035,-0.011,-0.001,56.4,-51.6,19.65,27.0
1786377854.8489006,-9.759,-0.8,0.469,-0.012,0.002,-0.031,56.7,-51.15,18.9,38.0
1786377854.8489254,-9.802,-0.857,0.498,-0.024,-0.009,-0.032,56.55,-48.6,19.5,38.0
1786377854.8489366,-9.747,-0.821,0.515,-0.021,-0.004,-0.021,56.25,-48.6,18.75,38.0
1786377855.0544767,-9.84,-0.898,0.388,-0.003,0.031,-0.04,55.8,-50.25,18.75,35.0
1786377855.0545025,-9.905,-0.824,0.431,-0.002,0.033,-0.024,56.4,-50.4,18.45,35.0
1786377855.054514,-9.747,-0.845,0.376,-0.01,0.022,-0.032,55.8,-50.55,18.0,35.0
1786377855.2589412,-9.917,-0.874,0.505,-0.037,0.022,-0.027,56.4,-50.4,18.15,37.0
1786377855.2589657,-9.89,-0.977,0.512,-0.027,-0.004,-0.026,56.55,-49.05,19.05,37.0
1786377855.258977,-9.776,-0.915,0.5,0.0,0.001,-0.022,55.8,-50.25,18.3,37.0
1786377855.4639263,-9.799,-0.936,0.488,-0.022,0.009,0.006,55.95,-49.2,19.65,35.0
1786377855.4639516,-9.802,-1.001,0.484,-0.023,0.005,0.013,56.55,-49.8,18.75,35.0
1786377855.6689866,-9.79,-0.929,0.503,0.002,-0.008,0.031,56.55,-51.3,18.3,41.0
1786377855.6690116,-9.84,-0.773,0.505,-0.013,0.025,-0.003,55.8,-49.5,17.25,41.0
1786377855.6690235,-9.888,-0.871,0.467,-0.035,0.042,0.012,55.95,-49.2,18.15,41.0
1786377855.8731577,-9.651,-1.068,0.11,0.076,0.176,0.039,56.7,-49.2,18.15,41.0
1786377855.8731823,-9.431,-1.137,0.132,0.258,0.327,0.039,55.95,-50.4,18.9,41.0
1786377855.8731935,-9.414,-1.434,0.022,0.651,0.573,-0.068,56.55,-49.5,18.3,41.0
1786377856.078729,-8.871,-0.589,-1.496,5.043,-0.466,0.08,57.15,-48.0,45.75,1313.0
1786377856.078754,-9.404,-1.233,-0.196,4.74,-0.188,0.428,57.15,-48.0,45.75,1313.0
1786377856.0787652,-9.342,-0.397,0.158,4.548,-0.148,0.688,56.55,-41.7,54.45,1313.0
1786377856.2826023,-8.55,0.781,2.452,-1.168,-0.147,-0.09,57.0,-39.75,63.15,1313.0
1786377856.2826276,-8.966,1.013,1.944,-1.149,0.045,-0.153,56.55,-37.8,62.55,1313.0
1786377856.48787,-9.728,-1.109,1.252,-3.284,0.576,-0.546,52.05,-49.8,44.4,1390.0
1786377856.4878945,-9.266,-0.761,0.235,-3.462,0.846,-0.442,51.75,-51.3,41.1,1390.0
1786377856.4879057,-9.895,-1.25,0.548,-3.462,0.875,-0.18,51.75,-50.25,37.5,1326.0
1786377856.693142,-9.967,-1.765,-0.888,-0.198,0.106,0.227,52.65,-49.95,19.95,42.0
1786377856.6931677,-10.561,-1.437,-1.19,-0.087,0.117,0.125,53.1,-50.85,19.95,42.0
1786377856.6931794,-10.728,-1.367,-1.166,-0.08,-0.005,-0.045,52.5,-49.5,19.8,32.0
1786377857.1017315,-9.78,-1.393,0.007,-0.031,-0.126,-0.009,52.05,-50.55,20.85,41.0
1786377857.1017559,-9.68,-1.336,0.014,-0.018,-0.079,0.002,50.55,-51.0,20.1,41.0
1786377857.101767,-9.546,-1.398,0.012,-0.007,-0.01,0.007,52.5,-51.0,20.1,45.0
1786377857.306444,-9.84,-1.104,0.189,0.357,-0.014,0.018,54.15,-50.4,21.75,44.0
1786377857.3064694,-9.778,-0.986,0.168,0.246,0.019,-0.016,53.7,-51.6,24.0,44.0
1786377857.3064806,-9.828,-1.058,0.182,0.039,0.019,-0.031,53.4,-50.4,24.0,59.0
1786377857.512806,-9.795,-1.173,0.227,-0.032,-0.011,0.023,53.55,-51.75,22.8,64.0
1786377857.5128298,-9.692,-1.331,0.294,-0.024,-0.029,0.021,53.4,-49.95,23.25,64.0
1786377857.5128407,-9.799,-1.24,0.16,-0.025,-0.019,0.009,54.45,-49.2,22.2,64.0
1786377857.7165575,-9.867,-1.132,0.211,0.037,-0.027,0.026,54.15,-51.6,24.45,67.0
1786377857.716583,-9.857,-1.094,0.242,0.022,-0.035,0.038,53.4,-50.85,24.45,67.0
1786377857.716594,-9.91,-1.068,0.333,0.003,-0.06,0.034,55.05,-51.0,24.15,67.0
1786377857.9235837,-9.847,-1.044,0.4,-0.06,0.01,0.012,54.9,-51.15,23.25,59.0
1786377857.9236093,-9.886,-1.073,0.407,-0.07,-0.009,0.01,53.25,-50.25,23.85,59.0
1786377858.1272442,-9.768,-1.125,0.352,-0.024,-0.001,-0.019,54.15,-51.15,23.25,70.0
1786377858.1272728,-9.84,-1.14,0.383,-0.012,0.02,-0.01,55.2,-51.6,22.95,70.0
1786377858.127285,-9.816,-1.154,0.362,-0.011,0.037,-0.027,54.3,-50.55,25.35,70.0
1786377858.3319004,-9.761,-1.149,0.292,-0.033,0.037,-0.041,55.8,-50.55,24.6,39.0
1786377858.3319252,-9.862,-1.18,0.304,-0.028,0.03,-0.031,53.55,-51.0,22.35,39.0
1786377858.3319364,-9.795,-1.18,0.323,-0.02,0.021,-0.039,54.45,-52.35,24.45,39.0
1786377858.5356543,-9.768,-1.293,0.208,-0.046,0.051,-0.024,53.55,-51.0,23.1,37.0
1786377858.5356789,-9.718,-1.391,0.23,-0.048,0.045,-0.019,53.25,-50.25,22.8,46.0
1786377858.53569,-9.816,-1.3,0.17,-0.036,0.015,-0.023,53.4,-51.9,23.25,46.0
1786377858.7402763,-9.78,-1.235,0.338,0.038,0.007,-0.001,55.5,-49.05,24.6,52.0
1786377858.7403018,-9.823,-1.293,0.357,0.04,0.022,-0.02,54.45,-50.4,22.95,48.0
1786377858.7403135,-9.795,-1.216,0.35,0.025,0.019,-0.003,54.45,-50.4,22.95,48.0
1786377858.9455104,-9.716,-1.279,0.299,-0.003,-0.01,0.015,53.7,-51.6,23.7,50.0
1786377858.9455347,-9.811,-1.207,0.318,-0.016,-0.006,0.008,52.8,-50.55,24.15,40.0
1786377858.945546,-9.823,-1.271,0.292,-0.026,0.016,-0.01,53.55,-51.3,24.6,40.0
1786377859.1509557,-9.878,-1.202,0.208,0.018,0.02,-0.012,53.55,-50.25,23.1,36.0
1786377859.1509812,-9.759,-1.271,0.215,0.011,0.012,-0.016,53.4,-51.15,23.25,56.0
1786377859.5555465,-9.843,-1.29,0.177,0.006,0.019,-0.006,53.4,-51.15,23.7,51.0
1786377859.5573573,-9.708,-1.3,0.232,0.002,0.01,-0.005,54.75,-51.75,23.55,51.0
1786377859.7626655,-9.878,-1.216,0.16,0.018,0.016,-0.007,54.3,-51.0,24.6,33.0
1786377859.7684095,-9.85,-1.235,0.29,0.029,0.011,-0.022,53.55,-52.5,24.6,33.0
1786377859.7684343,-9.867,-1.259,0.266,0.028,0.008,-0.04,55.8,-49.5,23.55,33.0
1786377859.9705617,-9.72,-1.439,0.251,-0.022,0.036,-0.023,54.15,-51.6,25.8,49.0
1786377859.9705873,-9.833,-1.252,0.086,-0.032,0.039,-0.011,53.1,-51.6,25.8,49.0
1786377859.9705985,-9.898,-1.374,0.146,-0.058,0.029,0.002,53.1,-49.2,24.0,49.0
1786377860.177506,-9.878,-1.314,0.115,-0.025,0.004,-0.02,53.25,-49.5,24.6,45.0
1786377860.1775315,-9.737,-1.408,0.103,-0.003,0.004,-0.023,54.45,-51.15,25.5,45.0
1786377860.1775427,-9.773,-1.42,0.172,0.0,-0.012,-0.019,54.45,-51.15,25.5,45.0
1786377860.381097,-9.723,-1.355,0.299,-0.03,0.026,-0.014,53.7,-49.65,24.75,54.0
1786377860.381122,-9.713,-1.396,0.28,-0.051,0.03,-0.03,54.45,-51.15,25.2,54.0
1786377860.381133,-9.728,-1.391,0.206,-0.052,0.027,-0.038,54.75,-51.0,22.8,54.0
1786377860.5837538,-9.84,-1.427,0.271,-0.06,-0.012,-0.006,54.0,-50.25,24.15,47.0
1786377860.583779,-9.914,-1.379,0.292,-0.063,-0.035,0.009,52.8,-48.6,24.6,47.0
1786377860.5837903,-9.926,-1.381,0.299,-0.069,-0.033,0.011,53.55,-49.8,24.15,47.0
1786377860.993681,-9.878,-1.348,0.177,0.012,0.021,0.026,54.15,-51.6,24.45,41.0
1786377860.9937055,-9.85,-1.413,0.323,0.013,0.001,0.027,54.45,-50.4,24.0,41.0
1786377860.9937167,-9.859,-1.305,0.117,0.016,-0.009,0.016,55.5,-49.05,24.6,41.0
1786377861.1985574,-9.79,-1.326,0.323,-0.028,-0.011,0.036,54.15,-50.4,24.45,53.0
1786377861.1985917,-9.768,-1.331,0.309,-0.027,0.018,0.033,52.65,-50.4,24.0,53.0
1786377861.198598,-9.766,-1.276,0.318,-0.027,0.027,0.029,54.9,-51.15,23.7,37.0
1786377861.4079418,-10.048,-1.118,0.041,-0.003,0.002,0.054,55.5,-50.55,23.55,57.0
1786377861.4079661,-9.984,-1.089,0.029,-0.003,-0.011,0.013,54.75,-51.0,24.6,57.0
1786377861.407977,-9.967,-1.125,0.22,0.014,-0.001,-0.003,55.2,-48.9,22.95,37.0
1786377861.6074176,-9.744,-1.334,0.168,-0.103,0.063,-0.1,54.15,-51.6,22.5,51.0
1786377861.607442,-9.766,-1.367,0.144,-0.082,0.067,-0.067,54.3,-49.8,22.35,51.0
1786377861.6074533,-9.749,-1.348,0.0,-0.034,0.052,-0.035,55.05,-50.55,24.6,51.0
1786377861.820849,-10.044,-1.262,0.101,0.26,0.001,0.001,54.45,-49.65,24.0,42.0
1786377861.820874,-9.943,-1.307,0.22,0.264,-0.005,0.012,54.0,-49.05,24.6,42.0
1786377861.8208852,-9.924,-1.31,0.251,0.285,-0.021,-0.007,54.3,-50.55,25.65,42.0
1786377862.2220316,-9.807,-1.02,0.666,0.002,0.052,-0.053,54.3,-52.95,28.2,51.0
1786377862.2220562,-9.864,-1.08,0.52,-0.049,0.02,-0.047,55.65,-49.95,29.25,51.0
1786377862.2220674,-9.742,-1.094,0.46,-0.076,0.004,-0.028,54.9,-50.85,26.55,51.0
1786377862.4277685,-9.814,-1.322,0.12,-0.013,-0.016,-0.03,54.9,-52.35,27.0,63.0
1786377862.4277942,-9.756,-1.25,0.115,0.003,-0.032,-0.052,55.8,-50.55,27.9,63.0
1786377862.4278052,-9.795,-1.3,0.117,0.015,-0.033,-0.024,54.9,-49.95,29.25,63.0
1786377863.0417562,-11.052,-1.681,-1.906,5.427,0.518,0.791,56.4,-48.0,34.35,1332.0
1786377863.0417814,-9.919,-1.08,-2.772,6.281,0.095,0.919,58.8,-49.5,39.6,1332.0
1786377863.041793,-10.606,-0.01,-3.713,6.743,-0.071,1.05,59.25,-45.15,46.35,1332.0
1786377863.2509677,-10.127,3.397,2.025,-1.285,-0.158,-0.329,60.15,-26.1,75.15,536.0
1786377863.250993,-9.522,2.629,1.607,-2.089,-0.184,-0.51,61.8,-28.5,73.2,549.0
1786377863.251005,-9.151,1.973,0.857,-2.63,-0.09,-0.649,60.45,-29.1,70.35,549.0
1786377863.453385,-9.141,-1.705,-0.843,-6.133,0.315,-1.167,52.35,-48.9,41.7,549.0
1786377863.4534142,-9.663,-1.444,-0.702,-5.939,0.419,-0.923,52.35,-49.95,34.65,549.0
1786377863.4534256,-9.658,-1.978,-0.522,-5.314,0.204,-0.811,48.75,-49.8,29.4,78.0
1786377863.6561046,-9.012,-2.531,-1.987,-0.13,-0.192,-0.024,51.75,-43.65,13.5,44.0
1786377863.6561327,-9.584,-2.418,-1.899,0.002,-0.071,-0.1,49.65,-46.2,12.6,44.0
1786377863.6561441,-9.527,-2.251,-1.82,0.085,0.051,-0.063,49.65,-45.0,13.05,39.0
1786377863.860972,-9.412,-2.401,0.79,0.311,-0.182,0.131,50.4,-47.25,16.65,51.0
1786377863.860997,-9.658,-2.167,0.359,0.416,-0.072,0.149,50.85,-48.0,16.65,51.0
1786377863.8610077,-9.843,-1.741,0.383,0.729,-0.047,0.226,49.65,-48.0,17.1,52.0
1786377864.0745716,-10.716,-1.295,-2.255,5.422,-0.639,0.902,58.5,-49.8,32.25,66.0
1786377864.074597,-8.37,-0.529,-2.368,5.66,-0.744,1.105,57.9,-49.65,39.15,66.0
1786377864.0746078,-8.253,-0.467,-1.264,5.498,-0.559,0.889,58.2,-48.0,41.25,66.0
1786377864.2721493,-9.826,3.17,2.203,-1.082,-0.11,-0.193,60.15,-33.45,68.55,1364.0
1786377864.2721746,-9.201,2.545,1.765,-1.335,-0.004,-0.239,60.45,-33.0,69.3,1364.0
1786377864.2721856,-9.256,1.604,1.034,-1.383,-0.018,-0.306,61.05,-35.1,66.6,1364.0
1786377864.4751756,-9.644,-0.4,0.232,-1.786,0.142,-0.436,60.3,-43.65,54.75,1364.0
1786377864.4751997,-9.61,-0.778,0.409,-1.648,0.221,-0.408,58.05,-44.4,52.95,1364.0
1786377864.475293,-9.907,-0.474,0.362,-1.573,0.206,-0.404,59.25,-45.9,52.2,1364.0
1786377864.6815655,-9.9,-1.511,0.309,-0.139,0.002,-0.025,55.5,-49.5,41.85,1330.0
1786377864.6815908,-9.969,-1.504,0.127,0.081,-0.071,0.082,55.05,-50.25,42.6,1330.0
1786377864.6816022,-9.888,-1.396,0.012,0.267,-0.132,0.173,55.8,-50.25,42.6,1330.0
1786377864.8844182,-9.981,-0.881,0.644,0.046,0.179,-0.08,56.4,-48.9,44.7,1345.0
1786377864.8844438,-10.245,-0.804,0.625,0.046,0.095,-0.086,54.45,-48.0,44.25,1347.0
1786377864.884456,-10.216,-0.745,0.491,0.041,0.012,-0.057,55.8,-48.6,45.6,1347.0
1786377865.089295,-9.627,-1.152,0.601,-1.365,0.345,-0.564,55.05,-50.25,42.3,1323.0
1786377865.0893276,-9.668,-1.08,0.053,-1.65,0.487,-0.588,54.3,-49.5,39.6,1323.0
1786377865.0893395,-10.041,-1.226,0.22,-2.168,0.574,-0.577,53.25,-49.8,39.0,1323.0
1786377865.2952023,-9.203,-1.516,-1.539,-1.381,-0.164,0.183,52.35,-46.95,15.6,38.0
1786377865.2952273,-9.941,-1.192,-2.174,-0.954,-0.088,0.137,51.9,-46.95,15.6,38.0
1786377865.2952387,-10.137,-1.384,-2.126,-0.835,-0.04,0.208,51.6,-45.75,13.65,38.0
1786377865.5076263,-9.656,-1.192,-1.659,0.204,-0.038,-0.061,53.25,-45.9,13.5,30.0
1786377865.507654,-9.483,-1.305,-1.219,0.21,-0.109,-0.049,51.0,-45.6,12.75,24.0
1786377865.5076647,-9.479,-1.286,-1.113,0.251,-0.144,-0.024,51.6,-46.2,14.4,24.0
1786377865.7018137,-10.424,-2.308,-0.675,0.983,-0.336,0.051,52.8,-47.85,15.45,25.0
1786377865.70448,-9.934,-2.107,-0.893,1.673,-0.261,0.137,53.7,-47.7,16.65,54.0
1786377865.7045057,-10.058,-2.413,-0.929,2.595,-0.278,0.268,53.25,-47.1,17.25,54.0
1786377865.9091523,-8.253,-0.373,0.134,5.713,0.031,0.817,59.4,-44.25,49.05,1320.0
1786377865.9091775,-9.524,0.903,0.462,5.075,0.433,0.49,59.85,-40.2,58.05,1320.0
1786377865.9091887,-11.09,2.131,1.264,4.061,0.325,0.018,60.3,-37.5,60.3,1320.0
1786377866.1134405,-9.869,0.464,0.912,-2.467,0.383,-0.74,60.9,-37.65,61.95,1320.0
1786377866.1134672,-9.831,-0.261,0.725,-2.905,0.307,-0.934,59.85,-41.7,58.5,1320.0
1786377866.318539,-10.551,-1.779,-2.112,-0.925,0.049,-0.063,52.35,-47.7,18.9,53.0
1786377866.3185637,-9.756,-1.872,-2.145,-0.701,-0.079,-0.038,52.05,-47.55,18.75,53.0
1786377866.3185751,-10.058,-1.891,-2.018,-0.482,-0.152,-0.062,52.8,-49.05,18.0,53.0
1786377866.523097,-9.531,-1.492,-1.216,0.078,-0.168,-0.086,50.4,-47.7,17.4,70.0
1786377866.523121,-9.594,-1.429,-1.041,0.078,-0.194,-0.096,51.9,-47.7,17.1,70.0
1786377866.523132,-9.543,-1.506,-0.898,0.076,-0.142,-0.036,51.75,-47.85,16.5,70.0
1786377866.734281,-9.641,-1.53,-1.058,-0.16,0.032,-0.144,51.15,-48.45,18.45,64.0
1786377866.7343059,-10.123,-2.006,-1.286,-0.247,0.051,-0.092,50.55,-48.3,18.0,64.0
1786377866.7344575,-9.694,-1.583,-1.104,-0.252,0.08,-0.039,49.05,-48.3,17.55,64.0
1786377867.1385086,-8.863,-0.4,-2.495,5.262,-1.241,1.206,58.95,-46.5,40.65,1323.0
1786377867.138533,-8.413,-0.682,-0.862,5.291,-0.944,1.341,61.2,-46.95,44.7,1323.0
1786377867.3430643,-9.21,2.708,1.982,-1.347,-0.035,-0.07,61.35,-36.6,63.15,1323.0
1786377867.343089,-9.146,2.447,1.513,-1.287,0.002,-0.089,60.3,-37.8,63.6,1323.0
1786377867.3431003,-8.945,1.772,1.326,-1.072,0.062,-0.122,62.4,-37.95,61.2,1323.0
1786377867.548049,-9.538,-0.405,0.618,-0.204,0.009,-0.065,61.2,-43.05,54.9,1323.0
1786377867.5480733,-9.44,-0.285,0.718,-0.083,0.084,-0.103,59.4,-43.8,55.65,1323.0
1786377867.5480843,-9.685,-0.153,0.871,-0.037,0.096,-0.136,61.8,-42.45,54.75,1323.0
1786377867.7520585,-9.785,0.63,1.458,-0.413,0.042,-0.145,59.4,-43.8,53.85,1304.0
1786377867.7520838,-9.845,0.876,1.776,-0.585,0.07,-0.234,59.4,-45.0,54.15,1304.0
1786377867.752095,-9.948,0.577,1.386,-0.794,0.092,-0.336,57.9,-44.25,54.15,1304.0
1786377867.9575603,-10.192,-1.879,-0.666,-2.553,0.624,-0.334,48.0,-51.75,27.45,1325.0
1786377867.957585,-10.075,-1.927,-0.656,-2.389,0.212,-0.108,48.6,-50.4,27.75,1325.0
1786377867.9575963,-8.803,-2.567,-1.018,-2.056,-0.01,-0.082,47.25,-50.55,23.55,56.0
1786377868.1626647,-9.424,-1.925,-2.509,0.1,-0.009,0.022,49.5,-46.65,15.75,72.0
1786377868.1626902,-9.685,-1.815,-2.155,0.263,-0.129,0.064,48.3,-47.85,15.75,59.0
1786377868.1627011,-9.651,-1.674,-1.592,0.492,-0.208,0.176,49.05,-47.85,17.55,59.0
1786377868.3665612,-9.843,-1.233,-2.279,4.977,-1.169,1.075,58.2,-49.2,31.05,51.0
1786377868.3665872,-10.183,-0.692,-2.545,5.56,-1.578,1.104,60.45,-48.45,37.95,51.0
1786377868.3665981,-9.711,-0.024,-2.993,5.525,-1.811,0.843,61.05,-47.85,40.8,1342.0
1786377868.5711505,-10.18,3.747,2.212,0.426,-0.173,0.079,62.1,-30.15,71.25,511.0
1786377868.571189,-9.428,3.438,1.872,-0.39,-0.225,0.017,61.65,-30.6,72.3,511.0
1786377868.5712,-9.165,3.017,1.573,-0.876,-0.173,-0.011,61.65,-29.85,70.8,511.0
1786377868.7762353,-9.704,-0.378,0.433,-1.797,0.181,-0.554,59.4,-39.6,59.7,573.0
1786377868.7762604,-9.78,-0.369,0.321,-1.84,0.177,-0.592,58.95,-41.1,58.95,573.0
1786377868.7762887,-9.261,-0.405,0.321,-1.884,0.327,-0.619,59.55,-42.9,57.3,573.0
1786377868.9802418,-9.704,-0.86,-0.433,-3.086,0.731,-0.406,54.45,-51.9,37.95,1348.0
1786377868.980273,-9.665,-1.142,-0.96,-3.13,0.063,0.212,54.0,-53.25,30.9,85.0
1786377868.9802854,-9.424,-1.508,-0.508,-2.901,0.15,0.468,53.25,-49.5,26.85,85.0
1786377869.1853838,-10.264,-1.01,-1.767,-0.024,0.241,0.084,53.1,-49.95,19.95,33.0
1786377869.1855934,-10.515,-1.018,-1.994,-0.093,0.018,-0.026,52.65,-48.45,18.9,33.0
1786377869.1856012,-9.632,-1.604,-1.358,0.025,0.032,-0.067,53.1,-48.0,19.65,45.0
1786377869.5986192,-8.825,0.393,0.754,4.095,0.024,0.557,59.25,-41.25,58.8,1333.0
1786377869.5986419,-10.484,2.114,0.907,3.406,0.117,0.384,59.25,-37.8,62.55,1333.0
1786377869.799745,-10.036,0.05,0.579,-0.617,0.241,-0.313,59.7,-38.4,63.45,1333.0
1786377869.7997706,-10.336,0.067,0.484,-0.551,0.191,-0.37,60.6,-39.0,62.85,1333.0
1786377869.7997818,-10.455,-0.158,0.642,-0.603,0.114,-0.351,60.15,-39.6,61.2,1333.0
1786377870.0146818,-9.378,-0.615,0.51,-1.526,0.289,-0.734,55.65,-44.25,55.35,1333.0
1786377870.0147076,-10.166,-0.498,0.426,-1.814,0.386,-0.727,54.45,-44.25,54.9,1414.0
1786377870.0147188,-9.206,-0.656,0.16,-2.058,0.382,-0.901,53.4,-46.95,52.05,1414.0
1786377870.2113767,-9.445,-2.164,-0.996,-1.871,0.584,-0.429,49.65,-51.15,34.65,1347.0
1786377870.2114055,-9.385,-2.296,-1.295,-1.971,0.607,-0.379,48.15,-49.65,32.1,1347.0
1786377870.2114167,-9.689,-2.423,-1.427,-2.005,0.502,-0.352,48.3,-50.25,31.2,1347.0
1786377870.4145901,-9.653,-2.346,-2.061,-0.945,-0.051,0.402,47.4,-48.9,18.45,52.0
1786377870.4146159,-9.565,-1.829,-2.413,-0.756,-0.184,0.489,48.9,-47.25,17.4,52.0
1786377870.6193893,-9.409,-2.121,-1.633,1.048,-0.248,0.243,50.1,-49.2,18.45,39.0
1786377870.6194131,-9.979,-2.346,-1.369,1.536,-0.293,0.339,52.35,-48.9,18.45,39.0
1786377870.6194246,-9.946,-2.294,-1.535,2.573,-0.472,0.539,51.9,-48.9,20.4,55.0
1786377870.8256118,-8.942,-0.165,-0.95,5.628,-0.458,1.174,58.05,-45.6,50.7,1323.0
1786377871.0285454,-9.615,1.836,1.152,-0.575,0.122,-0.314,60.3,-28.5,72.45,598.0
1786377871.0285707,-9.594,1.46,1.12,-0.882,0.179,-0.369,60.45,-29.85,71.55,598.0
1786377871.028582,-10.173,1.283,1.171,-1.3,0.089,-0.438,59.7,-31.5,71.85,598.0
1786377871.2331567,-8.995,-0.955,-0.347,-3.834,0.626,-0.126,50.1,-50.85,32.1,1306.0
1786377871.2331815,-9.436,-2.71,0.347,-3.145,0.727,-0.051,51.9,-51.15,31.05,1306.0
1786377871.4402854,-9.404,-1.652,-2.248,-0.491,0.037,-0.009,50.25,-49.5,19.8,49.0
1786377871.4403107,-9.431,-1.848,-1.937,-0.301,0.145,-0.125,52.05,-47.85,21.6,49.0
1786377871.4403224,-9.732,-1.525,-1.894,-0.172,0.17,-0.154,50.55,-48.3,19.8,49.0
1786377871.6445658,-9.74,-1.484,-1.183,0.048,0.064,0.068,51.15,-49.95,18.15,56.0
1786377871.644601,-10.072,-1.358,-1.3,0.077,0.0,0.065,50.55,-48.6,18.3,56.0
1786377871.6446075,-10.06,-1.604,-1.135,0.188,-0.064,0.035,50.1,-48.9,20.4,56.0
1786377871.8520968,-10.044,-1.848,-2.528,5.275,-1.36,0.83,58.65,-48.0,31.35,1313.0
1786377871.8521214,-9.651,-0.687,-2.787,5.867,-1.615,1.064,59.55,-47.55,40.8,1313.0
1786377871.852132,-8.416,-0.393,-3.033,6.223,-1.564,1.323,59.4,-48.0,43.95,1313.0
1786377872.0535748,-8.837,3.527,2.277,-1.6,-0.179,-0.312,58.8,-31.2,71.7,1313.0
1786377872.0536137,-9.208,3.067,1.549,-1.662,-0.011,-0.478,58.5,-31.95,71.25,1313.0
1786377872.0536199,-8.973,2.703,1.267,-1.474,0.15,-0.448,60.9,-31.05,69.3,1313.0
1786377872.2636554,-9.167,-0.285,0.876,-3.652,0.381,-1.043,56.4,-43.05,57.15,1313.0
1786377872.2637403,-9.172,-0.235,0.048,-4.199,0.502,-1.263,55.95,-47.7,52.8,1410.0
1786377872.2637522,-9.122,-0.273,0.35,-4.612,0.78,-1.227,55.5,-49.05,51.75,1410.0
1786377872.4635344,-9.622,-2.248,-2.387,-0.934,0.289,-0.08,50.25,-49.5,23.1,85.0
1786377872.4635584,-10.053,-2.121,-2.401,-0.731,0.206,-0.069,51.0,-49.05,22.05,52.0
1786377872.4635696,-9.565,-2.217,-2.389,-0.56,0.16,-0.113,51.15,-48.9,21.45,52.0
1786377872.6669497,-9.428,-1.65,-1.465,0.138,-0.122,-0.001,50.1,-49.2,22.5,36.0
1786377872.6669757,-9.495,-1.683,-1.226,0.12,-0.158,0.001,50.85,-48.9,22.2,31.0
1786377872.8716207,-9.21,-1.901,-1.908,-0.166,-0.02,0.029,47.85,-46.95,19.95,39.0
1786377872.871645,-9.318,-2.076,-1.757,-0.098,-0.081,0.103,50.1,-48.9,21.15,39.0
1786377872.8716562,-9.436,-2.155,-1.788,0.081,-0.167,0.106,49.65,-49.2,20.7,39.0
1786377873.2811525,-10.218,3.879,3.402,-0.22,-0.038,0.039,59.4,-33.75,68.55,548.0
1786377873.2811766,-9.967,3.828,3.019,-1.331,-0.13,-0.102,59.85,-34.35,68.4,548.0
1786377873.2811878,-8.787,2.435,1.935,-1.945,0.046,-0.212,59.85,-36.6,66.6,548.0
1786377873.4862046,-10.274,-0.426,0.045,-1.887,0.321,-0.392,61.05,-43.95,51.0,548.0
1786377873.4862301,-10.329,-0.68,-0.038,-1.78,0.225,-0.42,59.25,-46.35,48.45,548.0
1786377873.4862413,-9.979,-1.197,0.067,-1.462,0.261,-0.344,59.25,-46.35,49.95,548.0
1786377873.6912398,-10.034,-0.833,-0.084,-0.431,0.229,-0.126,56.25,-50.25,39.0,1328.0
1786377873.6912649,-9.55,-0.852,-0.199,-0.381,0.218,-0.128,56.25,-49.5,39.6,1328.0
1786377873.6912856,-9.84,-0.941,0.23,-0.391,0.202,-0.124,56.4,-48.45,40.2,1328.0
1786377873.8963795,-9.855,-1.109,-0.395,-0.237,0.269,-0.042,55.65,-50.85,36.9,1317.0
1786377873.8965735,-9.68,-1.161,-0.417,-0.198,0.204,0.003,56.25,-50.25,37.05,1317.0
1786377873.8965917,-9.661,-0.962,-0.57,-0.237,0.178,0.009,57.3,-50.25,36.75,1317.0
1786377874.1005971,-9.895,-1.128,-0.675,-0.394,0.163,-0.021,57.3,-49.5,33.75,1317.0
1786377874.1006224,-9.555,-0.994,-0.622,-0.392,0.257,-0.01,57.0,-50.25,33.45,1317.0
1786377874.1006336,-9.412,-1.022,-0.694,-0.413,0.39,-0.052,57.15,-50.4,33.6,1317.0
1786377874.3052003,-10.022,-1.104,-1.949,-0.992,0.263,-0.057,55.65,-48.9,28.5,1319.0
1786377874.3052254,-9.747,-1.183,-2.145,-1.001,0.217,0.026,54.75,-49.8,27.15,1319.0
1786377874.5105398,-9.974,-1.451,-1.319,2.29,-0.197,0.411,58.95,-49.95,27.75,110.0
1786377874.5105648,-9.862,-1.786,-1.185,3.241,-0.314,0.77,59.4,-49.65,30.6,110.0
1786377874.510576,-9.548,-0.711,-2.902,4.57,-0.532,1.357,61.2,-47.7,32.55,1314.0
1786377874.9213178,-9.522,-0.151,-0.414,-3.37,0.438,-1.393,63.45,-38.4,58.95,512.0
1786377874.9213421,-9.653,0.034,-1.152,-3.71,0.485,-1.27,62.55,-42.15,54.45,512.0
1786377874.9213543,-9.131,-0.122,-1.638,-4.053,0.585,-1.246,61.65,-43.5,52.8,1416.0
1786377875.1255994,-10.063,-0.883,-2.54,-1.202,0.209,-0.216,57.0,-49.05,29.4,1311.0
1786377875.1256235,-9.436,-1.377,-2.076,-1.146,-0.034,-0.109,56.55,-48.3,27.15,1311.0
1786377875.1256347,-9.615,-1.678,-2.15,-0.885,-0.049,-0.104,57.0,-47.55,26.4,1311.0
1786377875.3298533,-9.876,-0.52,-2.444,-0.499,0.018,-0.067,54.9,-48.45,22.5,97.0
1786377875.3298783,-9.596,-0.812,-2.148,-0.531,-0.014,-0.095,55.05,-49.8,22.05,97.0
1786377875.3298893,-9.491,-0.831,-2.16,-0.477,0.054,-0.068,54.9,-47.25,21.45,97.0
1786377875.5391932,-9.878,-0.766,-2.356,0.112,-0.011,0.075,56.25,-46.65,20.55,59.0
1786377875.5392184,-9.785,-0.802,-2.274,0.275,-0.038,0.122,57.0,-47.1,19.8,59.0
1786377875.5392299,-9.771,-0.927,-2.349,0.62,-0.117,0.217,56.4,-48.45,19.65,59.0
1786377875.9446256,-9.754,1.712,-0.68,-1.169,0.105,-0.414,70.35,-33.15,62.85,1323.0
1786377875.9446633,-9.821,1.614,-0.922,-1.263,0.065,-0.554,70.2,-33.0,62.25,1323.0
1786377876.149436,-9.56,-0.328,-3.369,-1.622,1.362,-0.146,57.45,-47.25,26.25,1354.0
1786377876.1494644,-9.38,-0.769,-3.335,-1.385,1.207,-0.14,58.2,-47.7,22.95,1354.0
1786377876.1494756,-9.634,-0.924,-3.531,-1.086,0.849,-0.255,56.55,-45.9,22.8,1354.0
1786377876.3538163,-9.515,-0.383,-4.444,0.082,0.272,-0.027,57.3,-45.6,20.55,113.0
1786377876.3538408,-9.199,-0.397,-4.401,0.046,0.252,0.011,57.3,-46.35,19.5,172.0
1786377876.3538523,-9.189,-0.359,-4.204,-0.071,0.142,-0.011,57.9,-45.75,18.15,172.0
1786377876.5589476,-8.823,-0.527,-4.147,-0.001,0.069,-0.035,58.65,-46.2,19.2,226.0
1786377876.5589767,-9.148,-0.29,-4.214,0.002,0.06,0.004,58.65,-46.2,19.2,226.0
1786377876.5589883,-9.014,-0.244,-4.214,-0.089,-0.071,-0.065,58.2,-45.75,20.4,226.0
1786377876.763798,-8.849,-0.323,-4.063,-0.15,-0.061,-0.051,58.2,-45.3,19.95,226.0
1786377876.7638218,-8.875,-0.259,-4.113,-0.185,-0.031,-0.037,56.55,-46.65,18.3,150.0
1786377876.763833,-8.849,-0.34,-4.12,-0.172,-0.032,-0.049,57.3,-44.4,20.1,150.0
1786377876.9675422,-9.44,-0.275,-1.913,4.427,-0.889,1.816,68.7,-35.7,60.75,1365.0
1786377876.9675663,-8.526,2.562,-0.256,3.052,-0.545,1.524,68.55,-33.6,65.85,512.0
1786377876.9675777,-9.562,3.029,0.524,1.344,-0.336,1.026,68.1,-31.95,68.4,512.0
1786377877.173139,-10.159,1.393,-1.183,-1.614,-0.046,-0.842,69.6,-29.7,66.6,510.0
1786377877.1731648,-10.161,0.555,-0.675,-2.023,-0.069,-0.931,68.85,-31.65,65.1,510.0
1786377877.377626,-9.064,-0.69,-1.178,-2.705,0.057,-0.698,61.05,-47.55,41.55,1346.0
1786377877.377651,-9.06,-1.188,-1.413,-2.437,0.171,-0.726,60.45,-47.7,35.1,1346.0
1786377877.377662,-8.859,-1.372,-1.032,-1.981,0.401,-0.615,61.2,-48.45,36.15,1304.0
1786377877.58231,-9.304,-1.393,-1.827,-0.295,0.011,0.004,57.9,-48.0,25.2,1293.0
1786377877.5823357,-9.699,-1.046,-2.076,-0.279,0.125,-0.043,57.0,-47.55,24.15,1293.0
1786377877.5823479,-9.527,-1.109,-2.181,-0.276,0.255,-0.026,56.25,-45.6,24.9,230.0
1786377877.7926764,-9.718,-0.852,-1.7,0.11,-0.025,0.138,57.0,-46.65,25.65,133.0
1786377877.7927012,-9.713,-1.231,-1.738,0.494,-0.021,0.154,57.75,-48.3,24.6,133.0
1786377877.792712,-9.641,-1.288,-1.927,0.854,0.014,0.274,58.05,-49.8,24.6,133.0
1786377877.9924872,-8.456,-0.072,-4.288,6.062,-0.786,1.945,67.35,-40.5,51.0,1340.0
1786377877.9925125,-8.789,0.024,-1.609,4.785,-0.598,1.682,68.55,-32.85,63.9,1340.0
1786377877.9925234,-9.091,1.314,-0.479,3.451,-0.265,1.341,68.1,-31.2,64.35,1340.0
1786377878.1959357,-9.57,1.896,-1.678,-0.571,0.088,-0.396,70.2,-25.65,68.85,511.0
