timestamp,ax,ay,az,gx,gy,gz,mx,my,mz,dist
1786369549.2282014,-3.189,4.997,7.532,0.034,0.161,0.061,52.8,-25.8,91.5,68.0
1786369549.2282438,-3.249,5.021,7.585,0.015,0.188,0.06,53.25,-25.05,92.7,68.0
1786369549.228263,-3.302,4.997,7.575,0.016,0.196,0.06,53.55,-25.8,92.25,68.0
1786369549.2282796,-3.381,4.958,7.781,-0.025,-0.001,0.102,55.05,-25.5,92.25,62.0
1786369549.2282965,-3.412,4.968,7.752,-0.039,0.016,0.121,55.05,-25.05,91.95,62.0
1786369549.2283123,-3.395,4.934,7.628,-0.06,0.014,0.135,54.3,-25.8,90.45,62.0
1786369549.2283282,-3.747,4.891,7.618,-0.025,0.072,0.189,55.2,-25.2,92.4,51.0
1786369549.2283523,-3.692,4.796,7.573,-0.048,0.05,0.177,54.75,-26.55,93.45,51.0
1786369549.2283738,-3.464,4.673,7.578,-0.034,0.036,0.171,54.15,-26.85,91.05,51.0
1786369549.2283902,-3.132,4.858,7.829,0.203,-0.094,0.334,55.05,-25.8,91.5,62.0
1786369549.2284052,-3.745,5.89,8.274,0.264,-0.163,0.335,55.65,-26.4,92.1,62.0
1786369549.2284198,-3.335,6.148,8.09,0.199,-0.217,0.275,55.8,-26.55,91.2,62.0
1786369549.228434,-2.207,5.418,7.013,0.095,-0.186,0.31,55.8,-25.05,93.45,60.0
1786369549.228449,-2.198,5.586,7.195,0.12,-0.138,0.348,57.15,-26.85,90.6,60.0
1786369549.228464,-2.26,5.854,7.254,0.107,-0.024,0.36,55.95,-25.2,90.6,60.0
1786369549.2284958,-2.076,5.804,6.876,0.066,0.087,0.177,59.85,-25.5,93.0,55.0
1786369549.2285101,-1.884,5.875,6.917,0.09,0.081,0.135,57.45,-24.15,92.1,55.0
1786369549.2285244,-1.81,5.902,6.996,0.088,0.111,0.142,58.95,-24.9,93.6,55.0
1786369549.2285392,-1.954,6.029,7.108,0.136,0.121,0.183,60.45,-23.25,93.9,60.0
1786369549.228554,-1.942,5.954,7.199,0.14,0.081,0.18,59.85,-25.05,94.2,60.0
1786369549.2285683,-1.97,6.026,7.309,0.155,0.053,0.172,59.85,-23.1,94.2,60.0
1786369549.2285833,-2.035,6.177,6.891,-0.048,0.048,0.08,61.05,-22.35,94.2,58.0
1786369549.2285976,-2.054,6.105,6.768,-0.039,0.012,0.051,61.95,-21.75,95.1,57.0
1786369549.2286115,-1.523,6.036,6.759,0.104,-0.044,-0.167,61.8,-23.55,93.75,55.0
1786369549.228627,-1.463,6.036,6.883,0.095,-0.062,-0.189,60.9,-22.95,93.6,55.0
1786369549.2286408,-1.401,5.997,6.919,0.109,-0.061,-0.216,62.1,-22.35,94.8,54.0
1786369549.2286582,-1.676,6.256,7.309,-0.122,-0.107,-0.339,59.4,-23.25,94.65,64.0
1786369549.2286732,-1.841,6.132,7.192,-0.154,-0.1,-0.357,58.5,-23.55,93.75,64.0
1786369549.2286882,-1.999,6.084,7.223,-0.15,-0.125,-0.369,58.65,-22.5,94.35,55.0
1786369549.2287035,-2.164,6.455,7.453,-0.13,-0.291,-0.278,55.8,-23.85,94.2,58.0
1786369549.228718,-2.112,6.179,7.345,-0.167,-0.22,-0.264,54.15,-22.95,93.6,58.0
1786369549.228732,-1.975,5.823,7.058,-0.187,-0.141,-0.267,53.7,-24.15,92.85,48.0
1786369549.2287474,-2.653,5.691,7.242,-0.158,0.106,-0.132,53.1,-26.1,91.35,52.0
1786369549.2287614,-2.653,5.442,7.235,-0.177,0.173,-0.109,52.8,-26.25,91.95,52.0
1786369549.2287757,-2.713,5.31,7.106,-0.137,0.198,-0.111,54.45,-26.4,90.3,58.0
1786369549.2287896,-3.218,5.303,7.542,0.032,0.137,-0.11,53.7,-27.6,89.85,59.0
1786369549.2288039,-3.187,5.2,7.58,0.017,0.12,-0.114,53.7,-26.85,91.05,59.0
1786369549.228818,-3.225,5.164,7.484,0.013,0.095,-0.102,54.75,-27.75,91.2,59.0
1786369549.2288322,-3.112,5.394,7.475,-0.055,-0.02,-0.047,53.4,-26.1,89.85,60.0
1786369549.2288465,-3.103,5.409,7.36,-0.07,0.012,-0.028,53.55,-27.0,89.7,60.0
1786369549.2288635,-3.048,5.334,7.305,-0.078,0.03,-0.026,53.1,-25.65,90.3,60.0
1786369549.2288775,-2.914,5.435,7.412,-0.02,0.0,-0.006,52.35,-27.9,89.1,69.0
1786369549.2288916,-2.875,5.389,7.434,-0.026,0.015,-0.009,53.55,-27.0,88.95,69.0
1786369549.2289052,-2.921,5.389,7.472,-0.04,0.013,-0.005,53.4,-26.4,91.05,69.0
1786369549.228919,-2.844,5.406,7.355,-0.042,-0.019,0.044,53.1,-26.1,88.35,54.0
1786369549.228934,-2.758,5.442,7.309,-0.03,-0.024,0.042,54.15,-27.15,89.55,61.0
1786369549.228948,-2.705,5.416,7.233,-0.034,-0.029,0.04,54.15,-27.15,90.3,61.0
1786369549.2289624,-2.571,5.428,7.472,-0.071,0.019,0.071,52.35,-26.85,89.55,53.0
1786369549.2289765,-2.547,5.492,7.501,-0.08,0.035,0.071,52.65,-28.35,88.05,72.0
1786369549.2289903,-2.562,5.397,7.393,-0.087,0.04,0.082,53.25,-26.25,88.95,72.0
1786369549.2290041,-2.55,5.337,7.448,-0.057,0.019,0.045,54.15,-28.8,88.35,69.0
1786369549.2290208,-2.679,5.351,7.424,-0.039,0.012,0.045,52.65,-27.15,89.1,54.0
1786369549.2290356,-2.545,5.318,7.465,-0.027,-0.008,0.046,54.45,-26.85,89.55,54.0
1786369549.2290506,-2.411,5.382,7.501,-0.009,-0.017,0.038,53.7,-28.35,87.75,60.0
1786369549.2290647,-2.377,5.444,7.491,-0.017,0.008,0.046,53.4,-28.35,87.75,62.0
1786369549.2290792,-2.437,5.468,7.465,-0.025,0.043,0.039,53.7,-27.6,88.35,62.0
1786369549.2290926,-2.356,5.294,7.487,-0.026,-0.018,0.005,53.4,-28.35,90.3,58.0
1786369549.229106,-2.382,5.279,7.472,-0.001,0.001,0.004,52.65,-27.9,88.8,58.0
1786369549.2291203,-2.44,5.274,7.496,0.013,-0.011,0.012,52.8,-27.45,88.2,58.0
1786369549.229134,-2.476,5.349,7.537,-0.003,-0.032,0.0,51.75,-27.0,88.2,57.0
1786369549.2291477,-2.44,5.387,7.563,-0.01,-0.023,0.001,53.1,-28.35,87.0,58.0
1786369549.229161,-2.416,5.504,7.525,-0.029,-0.012,0.003,53.4,-26.85,88.8,58.0
1786369549.2291749,-2.243,5.528,7.427,-0.028,0.048,0.047,54.75,-28.5,89.4,63.0
1786369549.2291887,-2.301,5.49,7.319,-0.011,0.049,0.052,54.0,-27.0,88.65,63.0
1786369549.2292037,-2.306,5.49,7.379,0.003,0.026,0.061,54.15,-27.6,88.8,67.0
1786369549.2292175,-2.358,5.428,7.539,0.028,0.009,0.058,54.0,-27.75,88.2,56.0
1786369549.229231,-2.327,5.442,7.602,0.006,0.028,0.056,54.0,-27.75,88.2,56.0
1786369549.229245,-2.327,5.428,7.669,0.0,0.04,0.063,54.15,-27.9,89.1,65.0
1786369549.2292583,-2.298,5.332,7.362,-0.026,0.077,0.066,55.8,-27.45,87.45,62.0
1786369549.2292721,-2.442,5.43,7.286,-0.014,0.052,0.062,55.05,-27.75,88.2,62.0
1786369549.2292857,-2.358,5.425,7.372,-0.001,0.041,0.064,55.8,-28.5,88.95,62.0
1786369549.2292995,-2.461,5.423,7.496,-0.003,0.034,0.031,55.5,-26.25,88.95,63.0
1786369549.2293134,-2.387,5.425,7.539,-0.007,0.007,0.024,55.8,-26.55,88.65,63.0
1786369549.229327,-2.389,5.406,7.491,-0.021,0.001,0.021,55.5,-28.95,89.4,63.0
1786369549.22934,-2.253,5.409,7.439,-0.024,0.024,0.013,55.8,-27.45,89.4,63.0
1786369549.2293537,-2.296,5.387,7.513,-0.021,0.037,0.005,55.2,-29.85,87.75,63.0
1786369549.229368,-2.509,5.392,7.487,-0.009,0.024,-0.005,55.8,-27.75,88.95,62.0
1786369549.2293818,-2.66,5.16,7.475,-0.039,-0.059,-0.19,53.4,-27.15,87.75,65.0
1786369549.2293954,-2.65,5.164,7.408,-0.024,-0.088,-0.214,54.45,-27.9,89.1,65.0
1786369549.229409,-2.607,5.167,7.456,-0.026,-0.104,-0.231,54.45,-29.1,88.35,65.0
1786369549.229423,-2.523,5.162,7.554,0.03,-0.107,-0.265,51.75,-26.55,88.95,60.0
1786369549.229437,-2.583,5.243,7.52,0.039,-0.089,-0.251,52.35,-28.35,88.35,60.0
1786369549.229451,-2.533,5.069,7.491,0.061,-0.086,-0.229,52.05,-27.75,89.4,60.0
1786369549.2294648,-2.6,5.428,7.683,0.069,-0.11,-0.179,50.55,-26.25,88.2,68.0
1786369549.2294958,-2.725,5.564,7.666,0.052,-0.135,-0.164,49.65,-24.9,88.05,69.0
1786369549.2295113,-2.631,5.454,7.673,0.023,-0.141,-0.154,49.8,-27.0,88.95,69.0
1786369549.229525,-2.655,5.476,7.638,0.013,-0.149,-0.057,47.7,-25.05,89.7,58.0
1786369549.2295382,-2.598,5.523,7.755,0.002,-0.138,-0.061,49.5,-25.05,88.95,61.0
1786369549.229552,-2.512,5.42,7.705,-0.021,-0.116,-0.049,48.15,-25.65,89.85,61.0
1786369549.2295668,-2.5,5.097,7.628,-0.101,-0.075,-0.086,47.4,-24.9,90.3,52.0
1786369549.2295809,-2.516,4.975,7.63,-0.084,-0.062,-0.085,48.6,-25.65,88.05,52.0
1786369549.2295947,-2.624,4.908,7.76,-0.047,-0.095,-0.093,47.4,-27.15,87.75,54.0
1786369549.2296278,-1.554,5.918,7.441,-0.125,-0.059,-0.052,43.95,-25.05,89.4,55.0
1786369549.2296429,-1.29,5.641,7.271,-0.137,-0.003,-0.023,45.9,-24.15,86.55,55.0
1786369549.2296572,-1.362,5.619,7.072,-0.124,0.033,-0.001,44.4,-24.45,88.35,58.0
1786369549.229671,-1.334,5.294,7.341,-0.037,0.192,0.276,46.5,-24.75,86.7,69.0
1786369549.2296848,-1.444,5.243,7.415,-0.038,0.239,0.279,45.6,-26.1,87.75,69.0
1786369549.2296987,-1.693,5.181,7.331,-0.052,0.266,0.271,47.25,-24.75,87.45,69.0
1786369549.2297125,-1.992,5.746,7.973,-0.02,0.366,0.163,47.1,-26.1,88.05,59.0
1786369549.2297256,-1.978,5.739,8.059,-0.118,0.468,0.156,47.7,-25.05,89.7,59.0
1786369549.229794,-1.887,5.727,7.994,-0.186,0.502,0.163,50.55,-27.0,88.95,59.0
1786369549.2298088,-2.234,5.009,7.932,-0.142,0.319,0.134,52.05,-27.75,89.4,70.0
1786369549.2298243,-2.179,4.963,7.944,-0.125,0.293,0.113,52.05,-27.75,89.4,70.0
1786369549.2298381,-2.301,4.942,7.932,-0.109,0.287,0.085,51.9,-28.8,88.05,70.0
1786369549.229852,-3.017,4.956,8.164,0.024,0.06,-0.099,53.55,-27.45,88.65,44.0
1786369549.229866,-3.033,4.796,8.059,-0.001,0.055,-0.126,54.45,-29.1,87.75,44.0
1786369549.2298803,-3.06,4.695,7.997,-0.008,0.016,-0.134,52.8,-30.15,88.2,44.0
1786369549.2298944,-3.558,4.669,7.819,-0.007,-0.045,0.066,51.9,-30.6,87.75,60.0
1786369549.2299082,-3.462,4.707,7.786,-0.039,-0.021,0.084,51.9,-30.3,88.35,60.0
1786369549.2299223,-3.364,4.657,7.678,-0.125,0.067,0.09,53.1,-29.55,85.8,60.0
1786369549.2299361,-3.194,4.937,7.738,-0.088,0.1,0.261,53.7,-32.25,87.0,62.0
1786369549.2299502,-3.05,4.949,7.743,-0.067,0.117,0.28,53.7,-31.05,88.05,62.0
1786369549.2299638,-3.206,5.066,7.748,-0.054,0.101,0.281,54.45,-30.6,84.75,62.0
1786369549.2299778,-2.677,5.085,7.573,-0.022,0.169,0.193,56.7,-31.8,84.75,66.0
1786369549.2299917,-2.478,5.059,7.489,-0.003,0.152,0.193,56.25,-31.2,85.35,66.0
1786369549.2300053,-2.418,5.09,7.456,0.015,0.144,0.204,56.55,-31.95,86.1,66.0
1786369549.2300205,-2.758,5.413,7.635,-0.043,0.153,0.2,58.5,-31.95,85.65,53.0
1786369549.2300355,-2.682,5.435,7.544,-0.068,0.223,0.184,60.15,-32.25,85.8,58.0
1786369549.2300494,-2.784,5.418,7.47,-0.087,0.226,0.175,60.6,-32.85,87.15,58.0
1786369549.2300634,-2.89,5.102,7.429,0.043,0.096,0.093,60.6,-31.2,87.15,51.0
1786369549.230077,-2.816,5.162,7.491,0.044,0.09,0.082,60.9,-32.55,85.5,51.0
1786369549.2300909,-2.902,5.126,7.475,0.045,0.09,0.061,61.95,-32.55,86.25,56.0
1786369549.2301054,-2.789,5.622,7.503,-0.024,0.06,-0.004,61.05,-30.9,86.7,50.0
1786369549.2301207,-2.713,5.478,7.386,-0.047,0.073,-0.013,63.45,-31.8,87.0,50.0
1786369549.230135,-2.765,5.428,7.321,-0.021,0.067,-0.015,62.1,-32.85,85.65,50.0
1786369549.23015,-2.758,5.593,7.374,0.003,0.024,0.043,61.8,-31.95,88.65,48.0
1786369549.2301643,-2.725,5.583,7.302,-0.007,0.024,0.054,61.95,-30.6,86.25,48.0
1786369549.230179,-2.722,5.569,7.343,-0.013,0.018,0.053,61.05,-32.4,85.65,53.0
1786369549.2301934,-2.77,5.459,7.326,0.005,0.063,0.054,62.55,-30.9,87.45,49.0
1786369549.2302082,-2.729,5.471,7.386,-0.006,0.063,0.059,64.2,-30.6,85.5,49.0
1786369549.2302234,-2.701,5.411,7.393,-0.021,0.074,0.061,63.15,-31.05,87.3,65.0
1786369549.2302377,-2.732,5.409,7.448,-0.021,0.043,0.027,63.15,-31.8,87.0,50.0
1786369549.230252,-2.82,5.456,7.554,-0.046,0.037,0.021,63.9,-29.85,86.55,50.0
1786369549.2302668,-2.854,5.574,7.671,-0.055,0.027,0.015,63.3,-31.65,86.4,50.0
1786369549.2302806,-2.806,4.992,7.082,-0.036,-0.054,0.045,64.2,-30.6,86.55,56.0
1786369549.2302952,-2.871,5.016,7.23,0.027,-0.08,0.02,63.6,-31.65,87.15,56.0
1786369549.230312,-2.931,5.148,7.252,0.058,-0.119,0.004,64.05,-33.15,86.1,56.0
1786369549.2303271,-2.816,5.499,7.673,0.022,-0.076,-0.062,63.6,-31.2,86.7,54.0
1786369549.2303412,-2.732,5.519,7.602,0.013,-0.08,-0.057,63.6,-31.95,85.65,54.0
1786369549.2303555,-2.684,5.473,7.518,0.015,-0.093,-0.055,62.4,-31.5,87.3,54.0
1786369549.2303698,-2.356,5.902,7.209,0.03,-0.024,0.063,60.6,-31.2,86.7,55.0
1786369549.230384,-2.342,5.859,7.135,0.005,0.012,0.065,61.35,-31.65,87.15,55.0
1786369549.2303984,-2.284,5.691,7.144,0.002,0.062,0.059,62.1,-30.9,86.7,55.0
1786369549.2304125,-2.377,5.665,7.321,0.07,0.036,0.052,62.4,-29.55,88.35,63.0
1786369549.230427,-2.289,5.689,7.415,0.064,0.038,0.06,62.1,-30.9,87.45,63.0
1786369549.2304416,-2.301,5.677,7.341,0.052,0.054,0.06,62.7,-29.85,86.55,63.0
1786369549.2304564,-2.411,5.827,7.42,-0.057,0.045,0.037,62.4,-30.3,88.05,53.0
1786369549.2304707,-2.342,5.799,7.367,-0.059,0.035,0.038,63.6,-28.95,87.9,67.0
1786369549.230499,-2.334,5.758,7.47,-0.045,0.028,0.048,63.6,-29.25,87.45,67.0
1786369549.2305138,-2.188,5.789,7.221,-0.032,0.021,0.071,62.85,-29.25,86.7,56.0
1786369549.2305288,-2.184,5.739,7.252,-0.034,0.028,0.077,64.05,-29.7,88.95,58.0
1786369549.2305431,-2.308,5.713,7.211,-0.029,0.048,0.073,62.7,-30.3,86.55,58.0
1786369549.230558,-2.243,5.82,7.403,0.047,0.025,0.004,64.65,-30.3,89.55,64.0
1786369549.2305725,-2.349,5.835,7.417,0.029,0.047,0.004,64.2,-28.8,89.1,65.0
1786369549.2305868,-2.358,5.842,7.463,0.027,0.032,-0.001,65.1,-29.7,87.15,65.0
1786369549.2306013,-2.143,5.811,7.259,-0.014,0.027,0.053,64.35,-29.7,88.2,51.0
1786369549.2306156,-2.246,5.782,7.219,-0.032,0.049,0.037,64.2,-30.3,88.8,55.0
1786369549.23063,-2.284,5.804,7.216,-0.042,0.047,0.027,63.9,-30.6,88.35,55.0
1786369549.2306442,-2.162,5.787,7.187,-0.053,0.085,0.03,64.05,-30.9,88.2,59.0
1786369549.2306585,-2.296,5.804,7.144,-0.048,0.072,0.037,64.65,-29.55,89.1,59.0
1786369549.2306728,-2.286,5.729,7.168,-0.049,0.041,0.035,65.7,-29.1,88.35,59.0
1786369549.2306874,-2.344,5.674,7.336,0.05,-0.017,-0.054,64.65,-31.5,89.55,46.0
1786369549.2307024,-2.387,5.768,7.4,0.047,0.005,-0.069,64.35,-29.25,89.4,46.0
1786369549.230717,-2.421,5.873,7.393,0.03,-0.003,-0.079,64.05,-29.7,88.2,46.0
1786369549.2307312,-2.064,5.94,7.08,-0.011,-0.005,0.004,63.9,-28.8,89.1,62.0
1786369549.230747,-2.186,5.904,7.063,-0.012,0.015,0.012,65.55,-30.15,88.95,62.0
1786369549.2307618,-2.301,5.895,7.077,-0.001,0.003,0.011,63.6,-30.45,89.7,62.0
1786369549.2307768,-2.298,5.612,7.111,-0.031,-0.064,-0.11,63.9,-29.55,89.55,60.0
1786369549.2307913,-2.248,5.641,7.137,-0.016,-0.052,-0.125,62.55,-28.95,88.2,60.0
1786369549.2308066,-2.339,5.602,7.13,-0.008,-0.031,-0.145,64.05,-30.15,88.65,60.0
1786369549.2308214,-2.421,5.856,7.329,-0.061,-0.189,-0.28,61.2,-29.55,87.75,73.0
1786369549.2308366,-2.32,5.813,7.286,-0.077,-0.183,-0.278,60.9,-29.85,89.1,73.0
1786369549.2308514,-2.296,5.804,7.214,-0.089,-0.167,-0.289,61.95,-30.6,87.3,73.0
1786369549.2308657,-2.361,5.72,7.187,-0.029,-0.119,-0.22,57.9,-30.6,88.05,66.0
1786369549.2308807,-2.332,5.725,7.19,-0.023,-0.089,-0.212,58.95,-30.3,87.75,66.0
1786369549.2308955,-2.418,5.698,7.132,-0.03,-0.084,-0.193,57.9,-30.6,88.05,66.0
1786369549.2309103,-2.703,5.318,7.094,0.168,0.004,-0.136,58.65,-29.55,89.1,63.0
1786369549.230926,-2.863,5.497,7.317,0.193,0.038,-0.128,57.15,-31.05,89.1,63.0
1786369549.2309408,-3.084,5.497,7.451,0.205,0.013,-0.114,57.3,-29.25,88.95,63.0
1786369549.2309556,-2.916,5.808,7.659,0.081,-0.165,-0.023,55.95,-28.35,91.8,69.0
1786369549.23097,-2.734,5.933,7.736,0.041,-0.128,0.01,55.95,-29.55,90.6,69.0
1786369549.2309847,-2.658,6.012,7.767,0.023,-0.007,0.046,56.7,-28.35,91.35,69.0
1786369549.2309992,-2.547,5.911,6.709,-0.073,0.057,0.286,58.95,-27.6,90.6,64.0
1786369549.2310143,-2.483,5.859,6.778,-0.039,0.152,0.344,59.25,-28.5,90.15,64.0
1786369549.2310288,-2.416,5.866,6.601,-0.035,0.209,0.367,59.4,-28.35,90.3,64.0
1786369549.2310438,-2.629,5.804,6.534,0.131,0.217,0.609,62.1,-27.75,90.75,66.0
1786369549.2310584,-2.38,5.89,6.395,0.145,0.206,0.662,61.95,-28.8,91.8,66.0
1786369549.2310736,-2.081,5.954,6.428,0.159,0.35,0.689,62.4,-27.6,91.8,58.0
1786369549.2310882,-2.354,7.487,6.215,0.138,1.203,0.809,77.1,-23.55,94.2,60.0
1786369549.2311027,-2.576,7.891,6.232,0.098,0.932,0.875,78.9,-24.3,91.5,60.0
1786369549.2311177,-2.222,8.128,6.321,0.018,0.801,0.894,79.05,-22.2,93.9,60.0
1786369549.2311325,-1.575,8.622,7.525,-0.543,0.786,0.889,88.65,-20.1,87.9,67.0
1786369549.231147,-1.844,8.531,7.676,-0.576,0.367,0.933,89.85,-19.8,88.8,67.0
1786369549.2311618,-1.779,8.473,7.858,-0.622,0.062,0.996,89.7,-19.65,86.1,67.0
1786369549.2311766,-1.935,6.689,7.099,-0.928,-0.364,1.176,94.2,-16.2,83.1,62.0
1786369549.2311914,-1.721,6.519,6.764,-0.94,-0.403,1.185,94.8,-15.15,85.5,62.0
1786369549.2312057,-1.717,6.005,6.057,-0.941,-0.361,1.161,95.7,-12.75,84.15,62.0
1786369549.2312212,-2.761,3.613,3.809,0.135,-0.02,0.358,97.2,-8.4,82.35,50.0
1786369549.2312367,-2.761,3.428,3.994,0.276,0.126,0.191,97.05,-7.8,83.7,50.0
1786369549.2312512,-2.895,3.546,3.917,0.328,0.256,0.024,97.5,-8.4,84.6,50.0
1786369549.2313018,-3.888,5.08,5.758,0.957,0.407,-1.048,97.95,-10.05,84.6,47.0
1786369549.2313173,-4.324,5.507,5.593,0.939,0.611,-1.179,96.45,-10.05,83.1,47.0
1786369549.2313325,-5.471,6.359,5.667,0.962,0.568,-1.304,97.95,-10.35,83.4,47.0
1786369549.231348,-1.542,11.873,8.921,0.64,-1.124,-2.303,84.0,-18.3,92.85,53.0
1786369549.2313633,-0.637,11.82,8.26,0.311,-1.146,-2.232,83.55,-18.75,93.9,53.0
1786369549.231379,0.936,11.358,8.167,0.098,-1.192,-2.14,81.9,-19.2,96.0,53.0
1786369549.2313972,0.136,8.042,5.502,-0.183,-0.934,-0.587,73.2,-21.45,95.85,38.0
1786369549.2314122,-0.359,7.647,5.454,-0.225,-0.635,-0.437,71.7,-20.55,96.45,38.0
1786369549.231428,-1.166,7.432,5.327,-0.217,-0.44,-0.3,70.35,-23.85,96.0,38.0
1786369549.2314425,-2.346,7.013,5.399,0.123,0.277,0.463,68.25,-22.5,94.35,34.0
1786369549.2314575,-2.255,7.063,5.598,0.096,0.338,0.526,67.95,-23.25,95.4,34.0
1786369549.2314725,-2.045,7.027,5.851,0.068,0.48,0.636,68.7,-23.7,94.35,34.0
1786369549.2314944,-5.471,7.611,4.396,2.457,-0.139,0.362,81.9,-12.3,93.0,41.0
1786369549.2315092,-4.365,8.394,3.721,2.108,-0.2,0.292,84.15,-11.85,93.0,86.0
1786369549.231524,-4.219,8.404,3.821,1.955,-0.02,0.202,84.15,-8.85,93.45,86.0
1786369549.2315395,-4.01,9.084,1.453,1.622,-0.849,0.07,85.2,6.45,93.45,818.0
1786369549.2315545,-3.706,9.105,0.977,1.611,-0.822,0.049,85.2,8.85,92.7,818.0
1786369549.2315698,-3.333,8.978,0.9,1.612,-0.723,0.12,85.8,12.15,92.4,720.0
1786369549.2315845,-2.746,11.229,1.326,-0.808,-0.432,0.217,81.15,19.2,94.5,559.0
1786369549.2316003,-3.946,12.979,0.907,-3.023,-0.987,0.06,81.0,15.6,93.9,559.0
1786369549.2316167,-2.861,13.171,1.142,-5.697,-1.44,0.173,77.55,11.7,96.15,693.0
1786369549.28789,0.16,8.703,2.978,0.06,-0.122,0.093,25.65,-3.0,79.35,50.0
1786369549.2879648,0.182,9.124,1.827,0.062,-0.052,0.169,25.95,-4.2,80.1,50.0
1786369549.288001,0.074,8.722,2.753,0.154,-0.044,0.184,25.95,-3.75,80.55,63.0
1786369549.4986157,0.74,8.909,1.944,0.049,-0.044,-0.004,28.65,-4.2,79.35,50.0
1786369549.4986682,0.747,8.815,1.805,0.04,-0.059,0.029,28.2,-3.0,81.3,50.0
1786369549.4986887,0.833,8.842,1.803,0.0,-0.066,0.068,27.15,-3.0,81.3,50.0
1786369549.6969535,-0.014,9.455,2.574,0.044,0.007,-0.015,28.5,-3.15,80.7,56.0
1786369549.6970072,0.223,9.397,2.648,0.035,0.019,-0.051,27.15,-3.75,80.85,56.0
1786369549.697028,0.328,9.294,2.54,0.022,0.041,-0.073,27.3,-4.05,81.45,56.0
1786369549.9021447,0.23,9.151,2.897,-0.039,-0.001,-0.025,28.8,-2.85,80.7,54.0
1786369549.9022202,0.311,9.136,2.782,-0.048,-0.024,-0.048,27.75,-3.6,80.4,54.0
1786369549.9022486,0.503,9.201,2.763,-0.036,-0.012,-0.086,25.95,-3.0,82.05,54.0
1786369550.106951,0.208,9.1,2.433,-0.014,-0.023,-0.047,27.75,-2.85,80.7,58.0
1786369550.1070366,0.084,9.21,2.375,-0.004,-0.017,-0.027,26.55,-3.15,78.9,58.0
1786369550.1070735,0.232,9.232,2.332,0.035,-0.01,-0.021,27.3,-3.15,79.65,58.0
1786369550.3111799,0.563,9.031,2.049,0.103,-0.03,-0.004,24.75,-2.1,80.4,58.0
1786369550.3112483,0.663,8.899,2.27,0.154,-0.023,-0.002,25.8,-1.65,79.65,59.0
1786369550.3112783,0.304,9.072,2.626,0.184,-0.092,0.0,25.8,-0.9,80.4,59.0
1786369550.516132,-0.05,8.985,1.935,0.051,-0.056,-0.035,24.9,-1.8,80.1,58.0
1786369550.516211,-0.007,9.067,1.949,0.026,-0.1,-0.049,24.3,-1.65,78.15,58.0
1786369550.5162463,0.017,9.189,2.126,0.009,-0.129,-0.068,24.3,-0.45,78.45,51.0
1786369550.9255607,0.244,9.103,2.172,-0.035,-0.034,0.011,22.65,-0.3,79.35,55.0
1786369550.925608,0.17,9.187,2.234,-0.013,-0.024,0.039,24.15,0.0,79.8,55.0
1786369550.925626,0.045,9.258,2.239,-0.02,0.012,0.067,24.9,-1.05,80.55,70.0
1786369551.1305935,0.141,9.187,2.229,-0.058,0.036,-0.039,23.55,-0.15,78.45,53.0
1786369551.1306427,0.043,9.141,2.286,-0.046,0.039,-0.042,24.9,-1.8,79.35,53.0
1786369551.1306639,0.01,9.086,2.289,-0.034,0.029,-0.053,23.4,-1.5,78.6,66.0
1786369551.3409708,0.175,9.206,2.356,-0.112,-0.002,-0.017,25.65,-3.75,80.1,59.0
1786369551.3410587,0.177,9.139,2.306,-0.08,0.007,0.02,23.85,0.0,79.8,59.0
1786369551.3410993,0.062,9.1,2.308,-0.074,0.024,0.018,23.55,-2.1,78.45,59.0
1786369551.541017,-0.012,9.12,2.375,0.005,0.0,-0.015,25.5,-3.15,78.9,55.0
1786369551.5411127,-0.132,9.081,2.409,-0.006,-0.005,-0.02,24.0,-2.85,78.9,55.0
1786369551.5411618,0.0,9.122,2.447,-0.006,0.002,-0.021,23.4,-3.45,78.6,55.0
1786369551.7453637,-0.103,9.17,2.406,-0.039,0.017,-0.006,24.45,-3.45,79.05,59.0
1786369551.7454193,0.017,9.158,2.416,-0.043,0.007,-0.006,23.4,-2.25,80.1,59.0
1786369551.745443,-0.012,9.076,2.399,-0.052,0.011,-0.013,24.0,-2.85,79.95,59.0
1786369551.952121,-0.089,9.031,2.325,-0.061,-0.013,-0.035,23.85,-2.25,80.1,56.0
1786369551.9521887,-0.022,8.957,2.37,-0.065,-0.02,-0.032,23.1,-1.8,77.55,56.0
1786369551.952214,-0.031,9.019,2.409,-0.055,-0.031,-0.032,23.1,-1.8,77.55,56.0
1786369552.155533,0.136,9.057,2.509,-0.11,-0.054,-0.073,23.85,-2.25,80.85,68.0
1786369552.1555958,0.199,8.973,2.464,-0.117,-0.018,-0.077,23.1,-2.7,78.6,57.0
1786369552.1556222,0.005,9.033,2.473,-0.112,-0.005,-0.076,22.65,-3.45,80.1,57.0
1786369552.3589911,-0.072,8.988,2.655,-0.272,-0.163,-0.219,23.25,-2.4,78.45,55.0
1786369552.3590627,0.017,8.871,2.655,-0.304,-0.141,-0.219,22.65,-3.0,78.3,59.0
1786369552.3591013,0.036,8.734,2.665,-0.344,-0.102,-0.219,22.65,-2.7,78.3,59.0
1786369552.5636756,-0.553,8.799,3.172,-0.508,-0.114,-0.262,21.3,-6.75,77.4,60.0
1786369552.5637379,-0.575,8.873,3.194,-0.525,-0.15,-0.299,20.85,-5.7,77.55,55.0
1786369552.5637639,-0.515,8.835,3.182,-0.535,-0.164,-0.315,21.0,-8.25,77.7,55.0
1786369552.7683496,-1.022,8.222,3.587,-0.607,-0.105,-0.461,18.75,-8.7,77.7,59.0
1786369552.76839,-0.972,8.076,3.455,-0.584,-0.146,-0.509,19.05,-9.75,76.35,57.0
1786369552.7684073,-1.065,8.226,3.757,-0.577,-0.154,-0.507,20.85,-8.85,76.05,57.0
1786369552.9736037,-2.452,7.496,6.536,-0.122,-0.562,-0.479,14.85,-11.1,76.05,44.0
1786369552.9736676,-2.418,7.472,6.491,-0.021,-0.593,-0.47,14.85,-9.6,76.5,28.0
1786369552.9736927,-2.497,7.542,6.426,-0.055,-0.612,-0.462,13.5,-11.4,75.9,28.0
1786369553.178106,-2.148,7.633,6.79,0.027,-0.311,-0.239,12.0,-10.95,75.6,32.0
1786369553.17816,-1.724,7.649,6.46,-0.088,-0.156,-0.209,12.0,-9.75,74.85,32.0
1786369553.1781855,-1.532,7.429,6.318,-0.156,0.058,-0.158,11.25,-9.45,73.65,44.0
1786369553.3833497,-1.762,7.118,5.698,-0.346,0.398,0.142,13.2,-11.4,74.4,39.0
1786369553.383396,-1.875,7.14,5.509,-0.371,0.455,0.171,14.4,-10.05,72.75,39.0
1786369553.383417,-2.035,7.017,5.55,-0.38,0.474,0.182,14.7,-12.9,74.1,45.0
1786369553.588367,-2.476,6.993,6.132,0.024,0.198,0.105,15.0,-14.1,76.65,31.0
1786369553.5884285,-2.272,6.967,6.206,-0.008,0.206,0.094,15.75,-14.1,76.95,31.0
1786369553.588456,-2.476,6.893,6.349,-0.017,0.239,0.089,15.9,-14.25,76.5,35.0
1786369553.8040743,-2.72,6.68,5.418,-0.101,0.174,0.048,18.3,-14.1,79.2,33.0
1786369553.8041244,-2.641,6.663,5.377,-0.046,0.119,0.033,18.15,-14.25,77.55,33.0
1786369553.8041472,-2.65,6.723,5.397,-0.013,0.07,0.049,17.25,-15.15,77.4,33.0
1786369554.0056875,-2.737,7.345,5.612,0.048,0.048,0.077,16.2,-15.15,78.15,39.0
1786369554.0057416,-2.533,7.283,5.66,0.077,0.048,0.066,19.05,-14.85,77.4,39.0
1786369554.0057642,-2.629,7.403,5.765,0.092,0.04,0.055,20.1,-14.55,79.35,39.0
1786369554.2071478,-2.286,7.247,5.54,-0.067,0.152,0.08,20.1,-14.25,78.0,34.0
1786369554.2072382,-2.339,7.219,5.547,-0.063,0.156,0.092,20.4,-14.25,79.35,34.0
1786369554.4075994,-2.385,7.254,5.868,0.02,-0.125,-0.02,20.4,-14.25,80.1,44.0
1786369554.4076748,-2.485,7.333,5.871,0.02,-0.152,-0.039,20.1,-15.75,79.35,44.0
1786369554.4077077,-2.389,7.353,6.021,-0.005,-0.195,-0.043,20.85,-15.45,79.8,44.0
1786369554.609076,-2.988,7.207,5.902,-0.101,-0.295,-0.192,20.4,-14.25,77.55,30.0
1786369554.6091473,-2.509,7.149,5.772,-0.137,-0.401,-0.234,18.9,-15.75,78.6,30.0
1786369554.6126063,-2.351,6.972,5.78,-0.143,-0.357,-0.28,19.05,-15.6,76.35,30.0
1786369554.8170972,-3.072,6.91,6.22,0.546,-0.853,-0.347,15.45,-11.4,74.4,50.0
1786369554.8171518,-3.464,7.034,6.354,0.609,-0.975,-0.332,15.75,-11.4,75.6,50.0
1786369554.8173146,-2.89,7.307,6.318,0.56,-1.009,-0.372,14.25,-10.2,72.6,50.0
1786369555.0213418,-1.702,7.125,5.329,0.073,-0.241,-0.086,12.9,-4.5,72.75,33.0
1786369555.021418,-1.604,7.099,5.265,0.133,0.005,-0.099,12.6,-7.65,72.0,58.0
1786369555.0214577,-1.513,7.156,5.09,0.229,0.291,-0.11,14.4,-4.5,72.75,58.0
1786369555.2257676,-2.346,7.389,4.87,0.706,0.228,-0.242,14.4,-1.5,73.2,66.0
1786369555.2258444,-2.349,7.518,4.896,0.784,0.358,-0.256,14.1,-1.8,72.75,66.0
1786369555.2258744,-2.066,7.781,4.724,0.983,0.52,-0.326,15.9,0.0,73.5,69.0
1786369555.4302597,-3.491,9.031,-1.93,3.542,0.592,-0.101,28.5,32.55,58.95,870.0
1786369555.4303155,-3.038,9.21,-2.643,3.312,0.46,-0.009,29.55,37.2,54.9,870.0
1786369555.430336,-3.225,8.813,-2.239,3.133,0.362,0.095,30.3,37.95,53.4,870.0
1786369555.6346054,-2.059,11.179,-2.935,-0.168,0.252,-0.073,29.7,44.85,40.8,779.0
1786369555.6346607,-2.693,11.705,-2.272,-1.571,0.261,0.151,30.3,44.55,42.45,779.0
1786369555.8399947,0.124,10.159,3.881,-8.657,-2.646,-0.766,25.65,-13.05,72.45,38.0
1786369555.8400757,1.516,-1.111,14.552,-5.686,-1.289,0.044,29.7,-17.4,68.4,38.0
1786369555.840112,2.986,1.611,8.497,-3.396,-0.093,0.396,32.7,-18.15,68.4,38.0
1786369556.0447664,0.388,2.792,6.625,1.874,0.11,-0.694,25.65,-16.5,68.4,30.0
1786369556.0448315,0.247,3.031,6.345,2.291,0.787,-1.018,23.55,-14.85,71.1,30.0
1786369556.0448656,-1.255,4.906,6.187,2.425,1.116,-1.023,25.2,-10.8,72.0,30.0
1786369556.2498214,-2.682,7.216,5.028,2.78,0.115,-0.421,21.15,7.65,70.65,69.0
1786369556.249867,-2.614,7.999,4.561,2.506,0.559,-0.363,21.9,10.8,69.45,69.0
1786369556.2498858,-4.7,8.696,4.647,1.995,0.534,-0.289,22.35,11.85,67.95,69.0
1786369556.4544425,-3.354,8.475,2.002,1.71,0.755,-0.027,26.4,25.8,62.55,1229.0
1786369556.4545655,-3.828,8.657,1.159,1.749,0.799,-0.196,27.45,28.2,59.85,1229.0
1786369556.4545927,-4.293,9.081,0.299,1.702,0.703,-0.096,29.85,32.55,57.15,1229.0
1786369556.6590161,-3.749,9.239,-2.102,1.248,0.199,0.039,31.35,39.6,48.3,1003.0
1786369556.6590915,-3.543,8.959,-2.069,1.122,0.197,0.022,30.9,41.25,48.9,1003.0
1786369556.6591227,-3.539,9.033,-2.195,0.982,0.191,0.024,31.65,40.5,47.7,1003.0
1786369556.8638728,-3.8,8.085,-3.223,0.524,0.11,0.091,32.55,46.2,41.7,723.0
1786369556.8639226,-4.216,8.636,-3.33,0.458,0.045,0.26,32.1,44.55,43.5,723.0
1786369556.8639455,-3.397,8.904,-2.82,0.129,0.057,0.274,31.2,45.9,42.3,723.0
1786369557.0693154,-2.665,6.747,2.619,-6.118,-2.282,-0.65,31.65,3.0,75.75,955.0
1786369557.0693705,-0.543,4.439,7.678,-4.615,-0.763,-0.202,33.15,-0.75,73.95,63.0
1786369557.0693953,-3.179,3.347,6.747,-2.765,0.082,0.171,34.95,-2.7,73.95,63.0
1786369557.2737746,-1.152,5.447,6.651,-0.046,-0.221,-0.073,34.05,-8.7,75.15,51.0
1786369557.2738156,-1.113,4.688,7.195,0.176,-0.009,0.049,33.45,-8.85,74.55,51.0
1786369557.2738326,-1.865,4.932,7.128,0.306,0.205,0.002,31.8,-6.75,76.35,35.0
1786369557.4780772,-2.066,5.033,7.393,1.087,0.5,-0.007,28.8,-4.8,73.65,45.0
1786369557.478127,-2.392,5.315,7.015,1.416,0.536,-0.388,30.15,-3.75,73.95,45.0
1786369557.4781492,-1.8,5.626,6.57,1.749,0.711,-0.689,28.65,-2.7,73.95,60.0
1786369557.6856246,-3.522,7.927,3.306,2.45,0.609,-0.363,29.25,13.2,71.55,53.0
1786369557.685687,-3.361,7.985,2.966,2.442,0.76,-0.344,27.75,17.55,70.05,53.0
1786369557.6857138,-4.029,8.356,1.901,2.372,0.97,-0.214,28.5,18.3,68.25,1287.0
1786369557.8878784,-4.156,9.112,-1.132,2.451,0.385,0.133,33.45,37.5,54.75,1001.0
1786369557.8879476,-4.415,9.481,-1.396,2.163,0.212,0.242,32.55,37.65,54.9,1001.0
1786369557.8879752,-3.704,9.122,-1.647,1.937,0.065,0.246,32.55,39.6,52.35,907.0
1786369558.095518,-3.711,8.849,-2.847,-0.112,-0.019,0.029,33.6,44.55,44.7,726.0
1786369558.095566,-3.51,8.614,-3.148,-0.162,-0.016,0.013,32.7,44.85,43.65,726.0
1786369558.095586,-3.742,8.274,-3.677,-0.092,0.071,-0.026,34.2,45.15,42.6,721.0
1786369558.2978044,-3.503,7.86,-3.62,-0.01,0.018,0.007,33.45,45.6,41.85,708.0
1786369558.2978554,-3.685,8.023,-3.587,-0.1,0.01,-0.013,33.45,45.6,41.85,708.0
1786369558.2978768,-3.613,8.088,-3.512,-0.153,-0.032,0.006,34.2,45.9,43.65,708.0
1786369558.5047705,-6.246,12.464,-1.08,-7.571,-0.838,-0.127,35.85,34.5,63.0,795.0
1786369558.5048504,-6.103,11.564,-0.939,-9.104,-1.929,0.59,36.75,25.05,70.95,795.0
1786369558.5048885,-3.529,8.418,1.039,-9.073,-2.167,1.329,36.6,21.45,75.15,795.0
1786369558.7098143,-2.105,4.867,6.491,0.323,-0.271,-0.112,37.05,-7.5,78.15,33.0
1786369558.7098796,-1.81,4.784,6.74,0.557,-0.054,0.007,37.8,-7.8,77.7,33.0
1786369558.7099118,-1.817,4.944,6.646,0.835,0.174,-0.034,38.85,-5.85,78.45,33.0
1786369558.9156446,-3.596,7.494,3.958,3.052,0.023,-0.401,29.55,11.7,72.9,61.0
1786369558.915695,-3.627,7.707,3.381,3.269,0.518,-0.178,30.45,16.2,70.95,61.0
1786369558.9157152,-3.646,8.528,3.151,3.044,0.659,-0.183,29.7,19.2,68.7,61.0
1786369559.115837,-4.992,8.456,0.359,2.569,0.607,0.259,31.2,31.95,54.45,945.0
1786369559.1158824,-4.46,8.679,-0.539,2.384,0.543,0.07,33.3,34.2,54.6,945.0
1786369559.3215818,-4.602,8.851,-2.636,0.609,0.332,-0.299,35.85,43.8,42.75,860.0
1786369559.321638,-4.599,8.703,-2.751,0.5,0.209,-0.225,35.85,45.0,44.25,679.0
1786369559.3216634,-4.432,8.61,-2.923,0.344,0.108,-0.12,36.0,44.85,44.4,679.0
1786369559.5278378,-4.398,7.585,-3.836,0.213,0.045,-0.014,38.55,48.45,41.25,639.0
1786369559.527883,-4.36,7.52,-3.697,0.142,0.056,-0.086,37.8,49.2,39.9,645.0
1786369559.5279026,-4.523,7.525,-3.713,0.026,0.004,-0.065,39.6,47.7,40.95,645.0
1786369559.7310946,-4.123,7.707,-3.709,-0.002,-0.035,0.006,39.0,48.6,39.6,661.0
1786369559.7311704,-4.13,7.614,-3.654,0.044,0.053,-0.016,38.1,48.45,40.2,661.0
1786369559.7311974,-4.338,7.724,-3.61,0.055,0.065,-0.039,39.0,48.6,39.3,658.0
1786369559.9355052,-4.125,7.515,-3.802,0.064,0.007,0.048,38.25,48.3,39.3,652.0
1786369559.93555,-3.965,7.398,-3.874,0.092,0.074,-0.006,38.85,48.9,39.45,652.0
1786369559.9355683,-3.998,7.264,-3.795,0.13,0.144,-0.005,40.05,49.2,39.15,634.0
1786369560.140273,-3.78,9.493,-2.44,-1.161,0.239,-0.008,37.8,47.7,42.0,636.0
1786369560.1403465,-3.907,10.159,-2.126,-2.16,0.272,-0.054,40.2,46.35,44.85,636.0
1786369560.1403859,-4.01,10.472,-2.021,-3.25,0.266,0.081,40.35,43.5,47.25,633.0
1786369560.3449638,-2.583,6.146,5.416,-1.7,0.103,-0.146,44.7,6.15,68.7,50.0
1786369560.345019,-2.595,5.765,5.459,-1.364,-0.126,-0.233,45.15,4.05,67.5,50.0
1786369560.3450432,-3.122,5.744,6.134,-0.666,-0.383,0.003,44.85,2.85,68.55,50.0
1786369560.5493438,-1.444,6.74,5.813,0.519,0.033,0.088,37.35,5.1,68.25,39.0
1786369560.5493896,-1.539,6.914,6.117,0.364,0.068,0.083,37.35,4.35,67.8,39.0
1786369560.5494084,-1.664,6.821,6.361,0.419,0.016,0.009,36.75,3.45,67.95,39.0
1786369560.7625787,-1.269,7.104,5.911,0.48,0.13,-0.16,32.85,7.05,68.85,41.0
1786369560.762625,-1.446,7.125,5.918,0.451,0.13,-0.13,33.45,7.2,69.45,41.0
1786369560.7626462,-1.781,7.106,5.734,0.471,-0.024,-0.227,33.9,6.15,69.45,41.0
1786369560.958848,-1.748,8.471,5.186,0.422,-0.311,-0.25,29.85,9.45,66.3,57.0
1786369560.9589205,-1.846,8.643,5.195,0.255,-0.347,-0.223,28.95,10.05,66.15,57.0
1786369561.1639817,-2.128,7.53,4.302,0.347,-0.228,-0.297,27.45,11.85,64.65,46.0
1786369561.16405,-2.128,7.611,4.092,0.475,-0.175,-0.424,27.45,13.8,63.15,46.0
1786369561.164074,-2.318,7.558,4.087,0.598,-0.098,-0.445,26.55,13.2,62.7,46.0
1786369561.3693137,-3.982,8.866,2.354,2.7,0.204,-0.921,27.3,29.55,54.6,1351.0
1786369561.3693745,-3.735,8.88,1.748,2.723,0.382,-0.809,24.75,28.8,55.65,1351.0
1786369561.3694015,-3.809,9.134,1.465,2.669,0.456,-0.624,25.8,31.8,52.8,1351.0
1786369561.573886,-4.192,9.246,-0.95,1.001,0.217,-0.114,25.2,39.75,42.3,1402.0
1786369561.5740266,-4.365,9.189,-1.331,1.054,0.168,-0.032,25.65,39.3,39.6,1402.0
1786369561.574063,-4.82,8.784,-1.578,1.193,0.07,0.068,28.2,40.5,40.05,1402.0
1786369561.7781518,-3.907,7.922,-3.448,0.849,0.148,0.025,31.2,46.65,33.45,797.0
1786369561.7781963,-4.178,8.155,-3.632,0.802,0.099,0.074,29.55,47.7,33.9,797.0
1786369561.7782152,-3.639,8.174,-3.761,0.736,0.023,0.14,31.8,46.2,31.8,797.0
1786369561.9846406,-2.078,7.822,2.334,-6.83,-1.223,1.981,30.15,23.85,62.1,1422.0
1786369561.9846942,0.891,5.188,4.803,-5.197,-0.228,0.952,27.3,16.8,62.25,1422.0
1786369561.9847193,-1.07,9.591,5.035,-3.409,0.662,0.28,29.4,18.15,61.35,49.0
1786369562.1867585,-1.767,6.127,5.258,0.359,-0.28,-0.278,34.2,11.1,67.2,43.0
1786369562.1868286,-1.314,5.713,5.693,0.479,-0.21,-0.04,32.85,11.4,66.75,43.0
1786369562.1868572,-1.178,5.751,5.737,0.856,-0.12,-0.124,31.35,11.7,66.3,43.0
1786369562.3928797,-3.575,9.771,1.494,4.049,-0.322,-1.197,23.1,23.55,57.3,72.0
1786369562.3929522,-2.741,8.942,1.755,3.71,0.142,-0.819,20.55,28.35,52.8,72.0
1786369562.392982,-3.077,9.57,1.137,3.45,0.571,-0.554,19.35,28.2,51.75,72.0
1786369562.5979128,-4.621,8.928,-2.306,1.751,0.346,0.038,23.4,42.9,35.25,1406.0
1786369562.597964,-3.17,8.279,-2.404,1.685,0.405,-0.125,22.65,44.4,33.0,1406.0
1786369562.5979865,-4.207,8.71,-2.775,1.484,0.313,-0.085,24.3,44.55,32.85,1406.0
1786369562.802422,-5.057,7.542,-4.104,0.477,0.259,-0.349,29.4,51.0,29.4,737.0
1786369562.8025455,-4.369,7.307,-4.235,0.289,0.093,-0.221,31.05,51.15,28.5,737.0
1786369562.802579,-4.094,7.017,-4.341,0.254,0.089,-0.052,30.45,50.55,28.65,737.0
1786369563.0070531,-4.286,7.341,-4.635,-0.102,-0.097,0.245,30.6,50.85,27.75,742.0
1786369563.007126,-4.264,7.46,-4.604,-0.125,-0.103,0.209,31.8,52.35,28.05,742.0
1786369563.0071585,-4.197,7.535,-4.499,-0.194,-0.06,0.17,31.8,50.4,26.55,742.0
1786369563.2117486,-4.24,7.81,-4.238,-0.252,0.032,0.059,30.3,50.4,27.75,732.0
1786369563.2118056,-4.293,8.164,-3.527,-0.448,0.112,0.082,30.3,49.65,30.3,732.0
1786369563.211828,-4.384,9.337,-2.502,-1.27,0.259,0.106,30.45,48.3,30.45,732.0
1786369563.4180245,-2.591,8.356,2.914,-6.893,-1.228,1.497,36.3,27.6,64.2,53.0
1786369563.4180732,-2.818,7.396,3.934,-6.359,-0.89,-0.367,40.5,21.15,65.85,53.0
1786369563.4180956,-4.712,5.32,5.394,-5.102,-0.328,-0.749,41.7,17.4,67.2,53.0
1786369563.622278,-2.751,4.549,7.07,0.838,-0.013,-0.25,41.25,8.1,67.95,40.0
1786369563.6223762,-2.356,5.124,6.713,1.087,0.014,-0.149,39.75,8.85,66.9,54.0
1786369563.622412,-2.342,5.236,6.694,1.322,0.121,-0.088,40.8,9.75,68.25,54.0
1786369563.8260105,-4.776,7.889,2.907,3.378,-0.26,-0.669,33.6,29.55,60.45,39.0
1786369563.8260775,-4.171,8.241,1.98,3.74,0.3,-0.121,31.65,35.55,54.45,412.0
1786369563.8261065,-3.742,7.982,1.48,3.953,0.573,-0.11,31.8,37.95,52.05,412.0
1786369564.03287,-3.225,9.787,-2.658,2.831,0.35,0.224,21.6,45.9,28.65,1415.0
1786369564.0329273,-4.039,9.857,-2.871,1.845,0.144,0.024,21.9,46.65,27.45,792.0
1786369564.0329506,-3.199,9.28,-2.861,1.101,0.193,-0.188,22.05,45.75,24.75,792.0
1786369564.2400603,-4.175,7.41,-4.798,-0.053,0.023,0.004,28.5,49.95,24.75,829.0
1786369564.2401464,-3.886,7.259,-4.762,-0.047,0.015,0.064,28.95,51.0,23.85,829.0
1786369564.240182,-4.015,7.254,-4.815,-0.018,0.009,0.06,30.15,51.3,23.85,821.0
1786369564.4401126,-3.67,7.702,-4.422,-0.291,0.089,0.039,30.6,49.95,25.8,802.0
1786369564.4401784,-4.053,8.102,-3.991,-0.586,0.014,0.003,30.3,49.65,24.45,802.0
1786369564.440208,-3.802,8.61,-3.646,-1.104,0.017,-0.13,29.55,49.95,27.3,780.0
1786369564.6456068,-6.646,9.421,-0.634,-6.134,-1.842,1.291,36.6,36.9,57.15,1067.0
1786369564.6456604,-3.8,8.334,0.673,-5.723,-2.236,1.429,36.45,30.9,61.05,1067.0
1786369564.6456811,-2.971,8.574,1.427,-5.341,-1.792,1.583,34.8,27.15,60.75,50.0
1786369564.8499913,-0.706,4.707,7.185,-0.825,-0.082,0.217,38.7,10.35,60.6,40.0
1786369564.8500426,-1.235,4.762,7.123,-0.334,0.177,0.02,39.45,9.6,61.8,40.0
1786369564.850065,-1.666,5.095,7.022,-0.167,0.267,-0.102,40.5,10.35,61.35,35.0
1786369565.0562782,-1.319,5.145,7.707,0.259,0.102,-0.023,38.85,10.2,63.75,45.0
1786369565.0563343,-1.626,5.152,7.626,0.42,0.213,-0.084,38.1,9.75,63.75,45.0
1786369565.0563576,-1.788,5.32,7.508,0.55,0.31,-0.082,37.95,10.35,63.6,45.0
1786369565.2595444,-3.819,9.388,-0.582,5.45,0.943,0.32,31.2,34.8,54.0,1424.0
1786369565.259579,-3.742,9.151,-1.128,5.386,0.847,0.082,32.1,38.4,48.0,1424.0
1786369565.2595992,-4.367,9.495,-1.762,5.182,0.651,0.22,31.65,40.2,48.15,1424.0
1786369565.4645724,-3.553,8.832,-3.654,0.027,0.372,-0.425,29.55,48.9,33.6,812.0
1786369565.4646225,-4.087,8.198,-4.214,0.009,0.145,-0.168,30.15,49.5,32.25,812.0
1786369565.4646447,-3.864,8.116,-4.266,-0.025,0.07,-0.06,32.4,49.5,32.25,812.0
1786369565.6700888,-3.701,7.767,-4.061,-0.126,0.034,-0.059,32.1,49.95,33.3,776.0
1786369565.6701488,-3.474,7.853,-4.044,-0.203,-0.019,-0.088,32.55,49.2,31.35,776.0
1786369565.670175,-3.424,7.774,-4.015,-0.19,-0.005,-0.078,31.95,51.0,33.0,776.0
1786369565.8738,-4.049,9.608,-1.927,-3.168,-0.293,-0.021,37.5,48.3,41.1,1338.0
1786369565.8738747,-3.847,9.816,-1.573,-3.812,-0.445,0.061,35.7,46.65,44.4,1338.0
1786369565.873907,-4.647,9.591,-0.565,-5.253,-0.6,0.647,40.35,44.25,52.35,1338.0
1786369566.0783956,-3.826,4.673,7.319,-4.937,-0.796,0.716,37.5,15.0,69.15,1292.0
1786369566.0784407,-2.076,3.857,6.871,-2.807,-0.448,-0.168,40.95,12.3,67.65,40.0
1786369566.0784607,-2.354,4.379,6.807,-1.958,-0.171,-0.496,40.5,9.15,68.7,40.0
1786369566.2838192,-1.647,4.523,7.506,0.541,0.195,0.053,39.75,6.15,67.65,48.0
1786369566.2838619,-1.628,4.396,7.518,0.803,0.384,0.046,40.05,9.0,69.3,60.0
1786369566.2838821,-2.392,4.211,7.427,1.191,0.452,-0.147,38.7,8.85,69.15,60.0
1786369566.4882243,-3.668,8.231,2.83,4.533,0.788,-0.32,37.35,32.55,60.45,50.0
1786369566.488307,-3.828,8.478,1.535,4.672,0.857,0.353,36.3,33.75,60.75,1284.0
1786369566.4883401,-4.269,8.617,1.788,4.658,0.722,0.505,34.05,37.95,54.9,1284.0
1786369566.6991112,-3.711,9.658,-1.86,1.63,0.25,-0.038,31.35,46.95,37.2,1411.0
1786369566.6991527,-3.84,9.412,-1.942,1.111,0.158,-0.131,29.7,48.3,37.8,894.0
1786369566.6991696,-3.687,9.342,-2.66,0.707,0.135,-0.264,31.05,49.2,36.6,894.0
1786369566.8982446,-3.448,8.147,-3.46,-0.199,-0.087,-0.021,31.95,49.05,33.75,801.0
1786369566.8982894,-3.338,8.274,-3.395,-0.272,0.004,-0.007,32.1,48.9,34.35,801.0
1786369566.8983073,-3.716,8.988,-2.332,-0.698,0.06,-0.069,33.6,49.2,33.9,801.0
1786369567.10262,-3.936,9.618,1.082,-6.469,-2.53,0.518,39.75,35.55,62.55,1121.0
1786369567.102679,-2.799,8.32,2.351,-6.109,-2.12,0.788,34.05,29.55,64.2,1121.0
1786369567.1027067,2.298,-8.861,-9.653,-5.434,-0.824,1.106,33.15,27.75,65.4,1121.0
1786369567.307105,-2.519,5.092,7.015,-0.533,-0.311,0.011,38.55,10.95,64.2,57.0
1786369567.3071759,-1.803,4.75,7.008,-0.351,-0.312,-0.057,38.7,11.55,65.4,57.0
1786369567.307207,-1.911,4.736,7.252,-0.202,-0.176,-0.146,38.55,9.45,63.75,57.0
1786369567.5118284,-2.516,5.262,7.331,0.751,0.47,-0.112,36.0,11.85,64.65,29.0
1786369567.5118797,-2.392,5.138,7.7,0.917,0.543,-0.151,34.95,12.75,63.9,29.0
1786369567.5118992,-3.043,5.033,7.621,1.395,0.557,-0.311,35.4,14.55,62.85,29.0
1786369567.7180204,-2.037,8.368,2.593,3.556,0.036,-0.219,28.95,33.15,55.05,63.0
1786369567.7180912,-2.921,8.238,2.806,3.579,0.386,-0.107,30.3,33.0,54.15,63.0
1786369567.7181218,-3.275,8.375,1.671,3.854,0.571,-0.107,31.05,36.9,52.35,63.0
1786369567.9218283,-2.962,9.385,-1.106,1.227,0.311,-0.382,28.2,42.45,36.75,1379.0
1786369567.9219081,-2.974,10.06,-1.87,0.768,0.35,-0.513,27.9,44.85,35.55,1379.0
1786369568.1281848,-3.419,8.437,-3.117,-0.107,-0.107,0.158,31.65,47.55,35.55,1095.0
1786369568.1282334,-3.345,8.349,-3.177,-0.143,-0.073,0.101,31.05,48.45,34.65,1095.0
1786369568.1282544,-3.397,8.478,-3.16,-0.169,-0.064,0.053,32.4,47.85,34.5,1095.0
1786369568.3331761,-3.833,10.149,-0.247,-4.966,-0.611,0.459,32.1,41.85,49.8,1389.0
1786369568.3332276,-4.436,9.74,1.003,-5.668,-1.048,0.789,32.1,36.45,53.85,1389.0
1786369568.333249,-4.46,10.731,1.202,-6.344,-1.689,0.951,31.65,34.35,57.0,1389.0
1786369568.5379026,-1.865,3.833,7.736,-0.322,-0.534,0.001,31.8,9.0,56.1,45.0
1786369568.5379531,-0.421,3.182,8.061,-0.035,-0.518,-0.216,32.4,8.1,57.3,45.0
1786369568.5379753,0.065,3.196,8.131,0.355,-0.118,-0.223,32.4,9.15,57.0,47.0
1786369568.7426796,-0.601,3.938,8.471,0.899,0.315,-0.184,30.45,10.8,57.0,47.0
1786369568.742718,-0.867,3.838,8.303,1.336,0.651,-0.159,28.5,10.95,56.1,47.0
1786369568.7428238,-1.233,3.797,7.999,2.006,0.952,-0.479,28.95,13.05,55.8,47.0
1786369568.9452686,-2.813,5.578,6.977,2.272,0.71,0.114,27.3,15.9,57.45,38.0
1786369568.945314,-1.173,5.365,6.974,2.446,0.571,0.134,25.5,15.15,58.95,38.0
1786369568.9453342,-1.841,5.605,6.637,2.817,0.566,-0.276,24.0,15.6,56.85,38.0
1786369569.1513052,-2.799,9.613,-1.547,0.603,0.139,-0.384,32.1,42.6,41.7,1293.0
1786369569.1513598,-2.715,9.318,-1.985,0.28,0.257,-0.385,32.1,45.0,40.65,1293.0
1786369569.1513834,-3.44,8.863,-2.701,-0.179,0.151,-0.291,35.4,46.35,42.6,890.0
1786369569.3550508,-3.369,8.856,-2.394,-0.75,-0.239,0.272,34.35,45.3,43.2,1023.0
1786369569.3551311,-3.273,9.328,-1.978,-1.354,-0.268,0.224,33.9,44.4,43.65,1023.0
1786369569.3551676,-3.292,9.9,-1.243,-2.373,-0.219,0.269,34.65,44.85,44.85,1023.0
1786369569.5601625,-3.156,-3.086,19.534,-7.645,-2.32,1.522,30.6,25.65,61.95,1372.0
1786369569.5602164,0.043,9.469,6.579,-5.582,-2.545,1.377,33.45,20.1,61.05,1372.0
1786369569.5602396,0.658,4.348,7.743,-4.453,-1.927,0.709,32.1,17.1,58.2,1372.0
1786369569.7649422,1.137,3.685,7.985,-0.064,-0.112,-0.032,33.45,8.4,56.55,54.0
1786369569.7649922,1.14,3.512,8.045,0.055,0.32,-0.03,32.55,8.7,57.15,54.0
1786369569.7650132,0.302,3.893,8.143,0.155,0.522,-0.068,33.15,8.85,56.25,54.0
1786369569.970743,-0.139,4.31,8.219,0.594,0.65,-0.071,29.25,8.7,57.45,46.0
1786369569.9708142,-0.654,4.472,8.1,0.629,0.573,-0.003,28.8,8.25,59.7,46.0
1786369569.9708452,-0.57,4.386,8.222,0.736,0.511,-0.031,30.15,9.15,60.3,46.0
1786369570.1740844,-2.653,7.257,3.235,4.429,0.669,-0.71,31.65,26.25,64.35,47.0
1786369570.174169,-2.552,7.956,2.152,4.984,0.892,-0.44,33.9,28.2,63.15,118.0
1786369570.1742074,-2.392,9.819,0.606,5.123,1.126,-0.244,35.85,31.05,62.25,118.0
1786369570.3788307,-3.39,10.238,-0.934,0.486,0.435,-0.467,32.55,40.65,50.55,1027.0
1786369570.3788846,-3.577,10.302,-1.161,0.191,0.393,-0.595,31.2,42.15,51.45,812.0
1786369570.5841765,-3.352,8.21,-2.43,0.047,-0.047,-0.124,38.7,45.9,50.4,713.0
1786369570.5842512,-3.407,8.234,-2.471,0.153,0.036,-0.098,37.95,46.35,49.95,718.0
1786369570.584282,-3.479,8.418,-2.37,0.226,0.084,-0.052,37.95,47.85,49.65,718.0
1786369570.7897446,-4.681,11.401,0.792,-5.418,-1.3,1.116,38.85,41.55,63.75,742.0
1786369570.7897847,-4.25,10.716,1.211,-6.574,-2.028,1.467,37.05,36.15,66.75,1020.0
1786369570.7898026,-2.174,9.112,3.175,-6.723,-2.39,1.565,33.3,30.3,67.8,1020.0
1786369570.9938514,-2.136,6.117,6.768,-1.181,0.195,0.111,36.45,13.05,60.6,32.0
1786369570.9939477,-2.478,4.958,7.041,-1.049,-0.279,0.021,35.4,11.55,62.55,32.0
1786369570.9939704,-1.389,4.47,6.941,-0.68,-0.661,0.053,33.9,10.8,61.35,63.0
1786369571.198471,-1.329,5.198,7.434,0.197,-0.104,0.023,28.65,6.15,58.8,50.0
1786369571.1985574,-0.919,4.93,7.47,0.308,-0.045,0.023,28.8,5.85,59.7,50.0
1786369571.19858,-0.723,4.889,7.592,0.511,0.141,-0.073,30.6,8.25,59.7,42.0
1786369571.402911,-1.051,5.622,7.156,1.23,0.618,-0.364,29.7,13.8,63.6,40.0
1786369571.4029603,-1.537,5.76,7.037,1.51,0.727,-0.502,30.15,15.75,65.4,40.0
1786369571.4029822,-1.987,5.914,6.62,1.862,0.799,-0.562,31.2,17.4,67.2,30.0
1786369571.6082287,-4.063,9.586,-1.65,5.581,1.109,0.12,37.2,39.0,59.85,56.0
1786369571.6082761,-4.314,10.309,-1.496,5.085,0.769,0.33,38.25,42.15,56.55,56.0
1786369571.6083016,-4.214,11.123,-1.551,4.117,0.349,0.223,37.5,43.2,54.75,746.0
1786369571.8131392,-3.692,10.997,-0.979,2.201,0.18,-0.047,36.45,45.15,51.45,746.0
1786369571.8131864,-2.942,10.594,-0.721,1.183,0.287,-0.371,36.75,46.35,49.65,746.0
1786369571.8132064,-2.866,10.41,-1.398,0.695,0.515,-0.411,39.0,48.3,48.9,746.0
1786369572.0172908,-3.412,9.754,-0.134,-6.552,-4.061,2.281,35.1,39.15,61.5,982.0
1786369572.0173402,-0.529,7.939,1.853,-6.361,-3.923,2.325,30.45,31.2,62.85,982.0
1786369572.0173619,3.053,2.344,-19.005,-7.87,-2.674,2.336,25.65,28.2,60.3,982.0
1786369572.2231455,-0.529,6.325,6.891,-0.517,0.214,0.355,30.3,6.3,57.15,44.0
1786369572.2232196,-0.462,6.371,6.788,-0.6,0.131,0.101,30.45,7.2,57.0,44.0
1786369572.2232509,0.323,5.677,7.3,-0.72,0.105,-0.002,30.3,7.05,56.85,44.0
1786369572.4278154,0.199,5.471,7.389,0.186,0.214,0.0,30.45,4.5,58.8,38.0
1786369572.4278717,0.081,5.423,7.372,0.31,0.292,-0.001,30.9,5.7,59.1,38.0
1786369572.4278963,0.084,5.473,7.398,0.538,0.387,-0.151,29.4,6.15,60.6,38.0
1786369572.6383219,-2.71,8.641,2.397,5.246,0.709,-1.584,22.8,22.5,55.65,52.0
1786369572.6383946,-2.272,10.044,1.446,5.403,0.942,-1.147,24.75,26.85,56.85,52.0
1786369572.6384263,-1.956,9.45,1.286,5.392,1.287,-0.459,24.9,27.75,54.75,52.0
1786369572.836454,-2.519,10.63,-1.276,2.448,-0.092,-0.013,18.3,36.15,43.2,1141.0
1786369572.8365545,-1.537,10.008,-1.652,1.525,-0.044,0.063,19.35,35.85,41.55,1141.0
1786369572.8365853,-1.956,10.125,-1.992,0.886,0.028,-0.221,20.4,37.5,41.1,1141.0
1786369573.042391,-2.823,8.418,-3.223,-0.223,-0.188,0.052,26.4,42.9,39.3,655.0
1786369573.0424504,-2.636,8.576,-3.01,-0.211,-0.067,0.032,27.15,41.25,39.6,743.0
1786369573.0425172,-2.612,8.945,-2.658,-0.38,0.034,0.035,26.55,43.8,40.2,743.0
1786369573.2489076,-3.493,10.195,0.692,-5.535,-0.692,0.177,31.2,35.1,57.0,1107.0
1786369573.248957,-3.718,10.544,0.69,-6.354,-1.055,0.215,29.25,28.35,62.25,1107.0
1786369573.2489808,-1.903,9.941,1.745,-6.972,-1.01,0.437,26.4,25.05,65.4,1107.0
1786369573.453821,-1.362,4.911,7.324,-0.08,-0.18,-0.123,31.65,3.45,63.9,54.0
1786369573.4538722,-1.599,4.719,7.456,0.081,-0.021,-0.056,29.55,3.6,63.75,54.0
1786369573.4538934,-1.978,4.997,7.29,0.265,0.039,0.064,28.95,3.45,63.15,54.0
1786369573.656138,-3.517,6.713,5.349,3.352,-0.135,-0.359,25.2,13.8,61.35,43.0
1786369573.6562083,-3.378,6.685,4.779,3.93,-0.498,-0.902,25.2,15.75,61.8,43.0
1786369573.6562366,-3.804,6.601,2.866,3.905,-0.555,-0.783,24.15,21.15,58.5,43.0
1786369573.864381,-2.595,10.343,-0.323,2.582,-0.119,0.293,21.15,36.3,43.05,1247.0
1786369573.864434,-3.007,10.135,-0.024,1.964,-0.18,0.236,22.35,35.55,40.8,1247.0
1786369573.8644557,-1.87,9.883,-0.45,1.351,-0.051,-0.077,22.8,37.65,39.9,1247.0
1786369574.070521,-2.907,9.06,-2.081,-0.193,0.001,-0.142,25.5,42.6,36.6,1300.0
1786369574.0705853,-2.813,8.88,-2.222,-0.235,-0.07,0.012,26.55,43.05,36.15,1300.0
1786369574.070614,-2.741,8.923,-2.188,-0.237,-0.102,0.119,27.15,43.65,36.3,1300.0
1786369574.2700522,-3.565,9.967,0.079,-5.661,-0.457,0.336,29.85,32.25,56.4,1152.0
1786369574.2700913,-3.244,9.68,1.949,-5.839,-1.02,0.336,29.55,28.8,60.75,1152.0
1786369574.270107,-2.624,8.284,2.976,-5.411,-0.964,0.304,29.85,29.1,60.75,1152.0
1786369574.474508,-1.829,5.071,6.926,-0.5,-0.062,-0.143,29.85,6.75,63.0,42.0
1786369574.4745672,-1.997,5.061,7.017,-0.229,0.029,-0.086,29.25,6.3,62.7,42.0
1786369574.4773679,-2.188,5.064,6.943,-0.006,-0.026,-0.102,28.65,5.7,63.6,42.0
1786369574.6796517,-1.889,5.353,7.173,0.95,0.314,-0.161,28.2,7.2,63.6,56.0
1786369574.679729,-2.282,5.248,6.902,1.415,0.473,-0.188,26.55,6.3,61.95,56.0
1786369574.679752,-2.37,5.358,6.598,2.085,0.559,-0.21,28.05,9.0,63.0,56.0
1786369574.8810987,-1.951,9.014,2.361,3.833,-0.335,0.356,22.05,20.55,53.1,160.0
1786369575.0913403,-2.456,10.348,-0.965,3.06,0.616,-0.611,20.25,31.5,43.95,1402.0
1786369575.0914063,-3.338,10.489,-0.984,1.607,0.239,-0.58,21.9,35.1,40.8,1402.0
1786369575.294226,-3.062,9.675,-0.96,-1.712,0.052,-0.012,25.65,38.55,44.4,1302.0
1786369575.2942781,-2.801,10.025,-0.247,-2.588,0.072,-0.214,26.4,35.1,44.4,1302.0
1786369575.2943017,-2.583,10.192,0.012,-3.499,0.179,-0.289,26.55,36.15,50.1,1228.0
1786369575.5001628,-2.768,6.981,6.512,-4.486,0.156,0.885,27.0,10.95,65.55,39.0
1786369575.5002244,-3.062,4.29,6.546,-2.695,0.171,0.585,29.25,5.55,63.75,39.0
1786369575.500248,-2.547,6.251,6.591,-1.57,0.195,-0.039,28.8,4.8,62.7,52.0
1786369575.7052608,-1.537,4.784,7.336,0.289,-0.003,-0.015,28.65,-0.3,61.05,55.0
1786369575.705334,-1.669,5.013,7.178,0.38,0.026,0.062,29.25,1.65,62.7,55.0
1786369575.7053652,-1.937,5.195,7.379,0.306,-0.127,0.012,28.05,-1.35,62.25,45.0
1786369575.9082942,-2.198,6.206,6.661,1.867,-0.057,-0.181,22.5,5.85,61.95,35.0
1786369575.9085727,-2.037,6.12,6.311,2.293,-0.051,-0.154,22.8,6.75,60.75,35.0
1786369575.9086132,-1.817,6.474,5.758,2.793,-0.071,-0.2,21.6,8.4,61.35,42.0
1786369576.1138937,-1.372,9.254,1.597,3.937,-0.455,0.21,21.75,23.7,52.35,57.0
1786369576.1139417,-1.52,9.378,0.673,3.91,-0.274,0.278,21.75,24.15,50.85,57.0
1786369576.1139622,-1.927,9.914,0.759,3.656,-0.063,0.256,22.8,25.65,49.35,57.0
1786369576.3188,-1.796,9.692,-0.508,-0.486,0.111,0.025,23.1,30.9,44.1,1419.0
1786369576.3188508,-2.021,9.792,-0.548,-0.47,0.073,0.065,23.25,30.6,45.75,1419.0
1786369576.3188734,-2.035,9.558,-0.51,-0.463,0.041,0.084,22.65,31.2,44.85,1419.0
1786369576.5228734,-0.51,9.467,2.825,-4.658,-0.153,0.764,21.0,20.55,56.1,1446.0
1786369576.5229623,-1.087,9.031,3.347,-4.833,0.054,1.098,18.9,16.5,58.8,1446.0
1786369576.5230014,-0.505,9.084,3.725,-5.091,0.535,1.296,16.5,13.2,59.7,1446.0
1786369576.7313406,-0.481,5.042,7.211,0.158,0.046,-0.038,20.55,-0.15,56.1,57.0
1786369576.7313964,-0.453,5.397,7.144,0.364,0.114,-0.069,21.15,-0.3,55.05,57.0
1786369576.7314198,-0.797,5.672,7.156,0.441,0.164,-0.179,20.25,0.45,57.45,57.0
1786369576.9335341,-1.386,6.548,6.108,2.325,0.639,-0.391,20.55,9.0,58.95,39.0
1786369576.9335773,-2.004,6.493,5.844,2.832,0.536,-0.731,21.3,10.2,58.65,39.0
1786369576.9335954,-2.286,6.773,5.049,3.317,0.365,-0.965,19.65,11.85,57.75,39.0
1786369577.1371582,-3.168,9.804,0.211,3.996,0.429,-0.341,24.0,31.5,49.8,62.0
1786369577.1372344,-3.352,10.197,-0.084,3.228,0.114,-0.027,24.0,31.8,49.8,1089.0
1786369577.137269,-2.998,10.108,-0.129,2.592,-0.134,0.071,23.85,35.55,47.1,1089.0
1786369577.3420498,-2.94,9.282,-2.27,0.023,0.031,-0.054,25.5,40.35,40.65,1309.0
1786369577.342118,-2.909,9.261,-2.251,-0.053,-0.085,-0.044,26.55,40.65,39.45,1249.0
1786369577.3421469,-2.732,9.179,-2.236,-0.138,-0.073,0.007,26.25,40.35,40.65,1249.0
1786369577.5467324,-2.61,9.711,0.297,-5.186,-0.362,0.722,25.05,30.3,55.35,1331.0
1786369577.5467875,-3.958,9.831,1.853,-5.441,-0.743,0.753,27.15,27.0,59.85,1205.0
1786369577.7514849,-2.093,5.368,6.855,-0.801,-0.163,0.038,25.2,0.3,61.35,45.0
1786369577.7515244,-1.508,5.071,6.869,-0.323,-0.16,0.084,25.5,0.15,60.75,55.0
1786369577.751541,-1.46,5.545,6.902,-0.148,-0.155,-0.071,24.0,1.35,59.7,55.0
1786369577.9563692,-1.168,5.167,7.369,0.954,0.064,-0.379,24.3,2.1,60.75,59.0
1786369577.9564593,-1.161,5.344,6.967,1.386,0.302,-0.462,22.8,2.85,61.2,59.0
1786369577.956544,-1.427,6.053,6.486,1.521,0.557,-0.459,24.0,5.1,62.25,36.0
1786369578.170085,-3.146,8.27,3.364,3.457,-1.313,-0.337,19.5,24.45,53.4,46.0
1786369578.1701524,-1.623,7.635,2.998,3.845,-1.079,-0.162,17.25,27.9,50.55,46.0
1786369578.1701837,-0.97,8.447,1.87,3.848,-0.619,0.332,18.75,26.4,48.3,120.0
1786369578.3711164,-1.501,10.01,0.364,-0.565,0.016,0.064,16.35,29.25,34.95,1377.0
1786369578.3711953,-1.401,9.651,0.086,-0.408,0.052,-0.005,17.7,29.55,36.6,1377.0
1786369578.5707817,-0.953,9.352,1.372,-1.068,0.204,0.226,16.95,28.8,39.9,1406.0
1786369578.5708587,-1.034,9.39,1.592,-1.77,0.102,0.294,16.95,25.2,42.75,1406.0
1786369578.57089,-1.556,9.538,1.915,-2.037,-0.182,0.314,15.75,24.45,44.25,1406.0
1786369578.77535,0.357,5.183,7.745,-4.123,0.661,0.75,14.85,7.2,53.25,52.0
1786369578.7754004,-1.195,5.212,7.491,-2.967,0.428,0.589,15.9,5.4,53.25,52.0
1786369578.7754228,-0.134,5.626,7.317,-2.124,0.511,0.441,16.35,3.75,53.7,52.0
1786369578.9807281,0.029,4.329,7.64,-0.073,0.031,-0.064,16.95,-0.9,52.35,52.0
1786369578.9807792,0.12,4.219,7.578,0.3,0.096,-0.013,17.25,-0.45,52.05,52.0
1786369579.184771,-1.413,6.596,7.02,1.502,0.037,-0.176,13.95,4.35,56.4,41.0
1786369579.1848426,-1.245,6.282,7.197,1.725,-0.259,-0.178,14.1,5.4,54.75,41.0
1786369579.1848714,-1.415,6.522,6.8,2.139,-0.527,-0.153,14.4,6.45,54.75,41.0
1786369579.3900023,-1.123,8.751,4.039,1.337,0.006,-0.098,13.2,14.85,52.35,85.0
1786369579.3900836,-1.027,8.861,3.843,1.322,-0.131,-0.131,13.2,14.85,53.85,85.0
1786369579.3901176,-0.857,9.019,3.771,1.083,-0.094,-0.156,10.05,14.55,50.7,85.0
1786369579.594775,-0.888,9.112,3.249,-0.067,0.052,0.056,12.6,17.4,51.0,1369.0
1786369579.5948145,-1.235,9.115,3.314,-0.155,-0.036,0.087,11.1,15.45,51.45,1369.0
1786369579.594832,-1.257,9.117,3.275,-0.231,-0.167,0.066,11.1,15.0,51.0,1396.0
1786369579.8008518,-0.95,8.856,3.213,-0.123,-0.301,0.129,11.7,14.85,51.6,1350.0
1786369579.8009155,-0.857,8.902,3.278,-0.171,-0.247,0.143,11.55,15.0,50.7,929.0
1786369579.8009415,-0.828,9.084,3.448,-0.201,-0.272,0.111,11.1,15.75,48.15,929.0
1786369580.0046873,0.165,8.399,3.745,-0.657,0.353,-0.107,12.6,15.0,50.4,202.0
1786369580.0047486,-0.943,8.339,3.369,-0.671,0.097,-0.041,13.2,15.9,50.55,202.0
1786369580.0047727,-0.666,8.399,3.95,-0.563,-0.012,-0.015,12.0,14.85,52.05,202.0
1786369580.2091594,-2.222,7.796,4.46,-1.071,-0.254,0.254,13.5,3.15,52.8,87.0
1786369580.2092192,-2.392,7.034,4.839,-0.853,-0.532,0.274,13.65,0.3,52.5,87.0
1786369580.2092497,-1.326,7.128,5.387,-0.506,-0.503,0.211,13.5,2.1,53.4,87.0
1786369580.4137268,0.28,7.87,5.528,-0.288,0.097,-0.062,10.8,5.4,52.95,54.0
1786369580.413772,0.357,7.925,5.464,-0.419,0.372,-0.156,11.85,5.4,54.0,54.0
1786369580.4137912,-0.132,7.412,5.521,-0.443,0.502,-0.132,10.5,7.05,53.4,54.0
1786369580.6189501,-2.272,8.416,2.325,3.923,0.985,-0.317,17.1,19.2,49.65,78.0
1786369580.6190069,-2.547,9.064,1.786,4.002,0.838,-0.237,17.4,19.65,48.9,78.0
1786369580.6190312,-2.507,9.838,1.099,3.613,0.492,-0.128,15.6,23.55,46.65,1437.0
1786369580.823597,-1.712,10.341,-0.026,0.194,0.018,-0.003,15.9,31.2,40.8,1407.0
1786369580.8236654,-2.014,10.29,-0.256,-0.153,0.068,-0.033,17.25,31.05,39.9,1407.0
1786369580.823696,-1.836,10.465,0.146,-1.271,0.032,-0.163,17.85,31.65,41.1,1409.0
1786369581.0290046,-2.648,10.63,1.923,-4.949,-0.68,0.786,21.9,22.8,54.0,1454.0
1786369581.0290549,-1.666,9.773,2.267,-5.458,-0.798,0.752,21.6,17.7,57.0,1454.0
1786369581.0290754,-0.486,8.562,2.916,-5.335,-0.285,1.005,18.6,13.5,59.55,1454.0
1786369581.233613,-1.015,4.812,6.893,0.034,0.108,-0.052,18.3,-4.8,58.2,49.0
1786369581.233685,-1.065,4.915,6.764,0.334,0.029,-0.04,19.65,-3.75,59.55,49.0
1786369581.2337084,-1.31,5.229,6.788,0.433,-0.161,-0.074,18.75,-4.05,59.4,49.0
1786369581.4379904,-1.298,5.748,7.468,1.485,0.139,-0.295,15.75,-0.9,56.85,56.0
1786369581.4380703,-1.027,5.693,7.077,2.18,0.08,-0.392,14.25,0.9,58.65,56.0
1786369581.438106,-1.168,5.899,6.412,3.005,-0.015,-0.716,13.5,3.6,56.4,56.0
1786369581.6427248,-1.118,10.104,2.069,1.797,-0.271,0.154,10.8,19.2,44.4,55.0
1786369581.6427844,-0.773,9.747,1.836,1.264,-0.292,0.156,8.55,20.1,44.1,1394.0
1786369581.6428127,-0.594,10.12,1.666,0.89,-0.147,0.073,10.2,21.0,44.25,1394.0
1786369581.847852,-1.006,9.807,0.833,-0.534,-0.107,0.114,12.15,21.6,42.3,1389.0
1786369581.847905,-0.879,9.814,0.996,-0.665,-0.131,0.03,11.7,20.25,40.95,1389.0
1786369581.8479292,-1.053,9.665,1.408,-1.082,0.103,0.097,9.75,18.75,42.75,1383.0
1786369582.0528316,-0.194,8.904,3.847,-4.254,0.097,0.707,10.05,7.2,55.05,1446.0
1786369582.052902,6.855,10.602,-13.647,-4.146,0.645,0.853,10.5,6.75,56.4,1446.0
1786369582.0529318,-2.037,4.401,6.689,-3.704,0.824,0.985,11.25,4.8,58.2,56.0
1786369582.2571383,-0.462,4.882,7.365,-0.107,-0.122,-0.03,10.8,-4.95,57.75,30.0
1786369582.2572064,-0.405,5.03,7.362,0.087,-0.092,-0.067,10.8,-3.75,55.8,30.0
1786369582.257235,-0.18,5.14,7.412,0.216,-0.008,-0.098,11.25,-4.8,56.4,47.0
1786369582.4621816,-0.986,5.363,6.802,2.764,0.195,-0.436,9.3,-1.05,55.8,56.0
1786369582.4622374,-1.338,5.899,6.333,3.206,-0.063,-0.726,7.5,3.6,56.4,56.0
1786369582.4622605,-1.867,6.728,4.355,3.249,-0.127,-1.002,7.95,2.85,56.4,43.0
1786369582.6667445,-1.144,10.278,2.468,1.628,-0.173,0.195,11.1,18.9,47.7,1480.0
1786369582.6668105,-0.864,9.984,2.121,0.933,-0.223,0.184,9.75,18.3,49.35,1480.0
1786369582.6668396,-1.03,9.699,1.422,0.052,0.093,0.03,10.35,18.9,44.85,1408.0
1786369582.872278,-1.326,9.416,1.044,-0.026,-0.003,0.048,11.25,19.8,45.75,1412.0
1786369582.8723664,-1.262,9.469,1.144,-0.068,-0.042,-0.01,12.0,17.55,46.5,1412.0
1786369582.8726144,-1.204,9.455,1.18,-0.127,-0.034,-0.02,12.6,19.2,44.85,1412.0
1786369583.0785465,-1.209,9.153,3.622,-3.693,-0.087,0.3,12.6,11.85,55.5,1478.0
1786369583.0785983,-1.429,9.278,3.984,-3.988,-0.198,0.195,12.6,9.6,58.05,1478.0
1786369583.0786197,-0.979,8.471,5.162,-4.231,-0.083,0.239,12.0,8.25,59.4,1478.0
1786369583.285097,-0.699,4.228,7.652,-0.231,-0.174,-0.048,15.9,-5.4,61.05,41.0
1786369583.2851517,-0.541,4.324,7.508,0.067,-0.027,-0.054,13.2,-4.35,61.2,41.0
1786369583.2851746,-0.919,4.666,7.508,0.174,0.106,-0.009,14.7,-2.85,59.4,41.0
1786369583.485825,-1.331,5.009,7.116,2.598,0.329,-0.291,11.55,0.3,58.5,63.0
1786369583.485883,-1.401,4.173,6.208,3.918,-0.399,-0.495,11.1,2.25,58.8,63.0
1786369583.4859061,-0.644,7.168,4.424,4.072,-0.162,-0.403,10.5,6.3,58.95,63.0
1786369583.6906953,-2.492,10.496,1.889,2.019,0.057,-0.18,14.7,22.2,52.8,1389.0
1786369583.6907594,-2.282,10.154,1.405,1.544,-0.027,-0.034,15.75,24.45,52.35,1389.0
1786369583.6907856,-1.865,9.898,1.468,1.183,-0.04,0.101,14.4,23.85,51.75,1389.0
1786369583.8953578,-2.315,9.524,-0.136,0.16,0.108,-0.105,16.5,26.85,49.05,1381.0
1786369583.8953965,-2.368,9.673,-0.204,-0.015,-0.031,-0.037,16.5,27.9,45.75,1381.0
1786369583.895413,-1.966,9.881,0.536,-1.097,-0.066,0.175,16.5,27.15,49.05,1381.0
1786369584.100825,-1.973,8.89,2.799,-4.923,-0.416,0.623,15.9,14.25,62.25,1398.0
1786369584.1009,-0.903,7.693,3.733,-4.53,-0.331,0.972,14.7,10.5,65.25,67.0
1786369584.1009321,-2.231,7.415,5.54,-4.021,-0.285,1.217,14.85,6.45,65.1,67.0
1786369584.3019803,-1.207,5.588,6.864,-0.382,-0.054,0.024,15.0,-4.05,61.5,68.0
1786369584.3060057,-0.579,4.98,7.063,-0.101,-0.196,-0.067,15.15,-4.5,61.35,64.0
1786369584.306073,-0.352,5.279,6.95,0.178,-0.186,-0.043,14.85,-5.7,61.8,64.0
1786369584.5097353,-0.761,5.727,6.282,2.012,0.073,-0.591,11.7,-0.15,60.45,82.0
1786369584.5097947,-0.996,6.045,5.885,2.532,0.055,-0.85,11.7,1.35,60.45,82.0
1786369584.5098174,-1.944,5.519,4.408,2.765,0.08,-1.01,12.0,3.15,58.95,41.0
1786369584.714532,-2.128,9.51,2.385,2.981,0.303,-0.408,9.6,17.7,50.4,693.0
1786369584.7145817,-2.2,9.541,2.176,2.72,0.326,-0.186,10.35,16.5,49.95,693.0
1786369584.7146034,-2.471,9.852,2.028,2.293,0.149,-0.045,8.55,20.85,48.9,693.0
1786369584.9198544,-2.04,9.718,0.417,-0.25,0.042,0.071,11.55,21.9,44.1,1400.0
1786369584.9199328,-2.009,9.692,0.429,-0.42,-0.04,-0.002,11.55,21.9,46.35,1400.0
1786369584.919968,-1.906,9.814,0.752,-0.913,-0.036,0.02,12.0,22.5,45.3,1400.0
1786369585.1236396,-0.888,8.626,4.365,-4.937,-0.648,0.586,9.3,7.65,59.55,104.0
1786369585.123713,-1.209,-1.195,11.839,-4.396,0.007,0.355,4.95,1.35,58.2,104.0
1786369585.1237442,-1.018,8.138,7.106,-3.352,0.466,0.753,5.7,2.1,56.4,104.0
1786369585.3295913,-1.35,4.717,7.453,-0.397,-0.159,-0.044,8.7,-5.1,57.15,50.0
1786369585.329637,-1.025,4.616,7.494,-0.128,-0.212,-0.079,8.55,-6.15,56.25,50.0
1786369585.329658,-0.838,4.683,7.539,0.066,-0.141,-0.066,10.5,-5.85,59.4,50.0
1786369585.5341532,-1.657,4.982,5.765,3.531,-0.206,-0.931,7.8,3.0,55.5,53.0
1786369585.5342014,-1.147,7.472,4.551,3.794,-0.196,-1.038,8.25,5.55,56.1,53.0
1786369585.5342228,-1.628,8.638,3.419,4.213,0.553,-0.634,11.1,12.75,51.45,53.0
1786369585.738653,-3.069,10.142,1.882,1.669,0.1,0.039,12.9,21.9,50.4,1410.0
1786369585.7387037,-2.753,9.919,1.628,1.271,-0.12,0.072,13.65,25.8,48.45,1410.0
1786369585.7387261,-1.93,9.665,1.379,1.088,-0.1,0.148,14.7,26.4,46.05,1410.0
1786369585.9433796,-2.442,9.412,0.23,-0.364,0.059,0.002,15.15,25.8,45.6,1384.0
1786369585.9434338,-2.559,9.388,0.23,-0.479,-0.012,-0.038,12.75,25.2,45.75,1384.0
1786369585.9434578,-2.569,9.323,0.378,-0.573,-0.063,-0.031,13.95,26.85,47.55,1384.0
1786369586.1486216,-2.605,9.452,3.608,-3.361,-0.583,0.568,13.35,15.75,57.75,1433.0
1786369586.148681,-3.139,8.976,4.259,-3.855,-0.981,0.68,13.95,12.45,58.2,1433.0
1786369586.148704,-2.064,8.198,4.046,-4.08,-1.261,0.883,9.75,10.5,60.75,1433.0
1786369586.358948,-1.784,5.875,6.977,-0.703,0.134,0.066,11.7,-1.65,58.2,75.0
1786369586.3590078,-1.475,5.619,6.943,-0.642,-0.089,0.077,11.1,-2.25,59.55,75.0
1786369586.3590338,-1.116,5.413,6.979,-0.665,-0.199,0.028,9.3,-1.05,58.05,75.0
1786369586.5586858,-0.893,5.222,8.011,0.145,0.029,-0.041,11.85,-2.25,57.75,54.0
1786369586.5587573,-0.73,5.059,7.966,0.399,0.076,-0.118,10.95,-2.4,57.9,54.0
1786369586.5587852,-0.943,5.085,7.819,0.811,0.201,-0.257,11.85,-3.0,56.55,66.0
1786369586.7624588,-2.394,8.612,3.093,4.301,1.12,-0.678,13.35,13.5,54.45,68.0
1786369586.762547,-2.978,9.064,2.835,3.768,0.988,-0.568,12.9,15.75,54.0,68.0
1786369586.7625682,-3.316,9.45,2.093,2.636,0.535,-0.441,15.15,20.85,52.2,1390.0
1786369586.9673276,-3.12,9.682,0.747,0.511,-0.014,-0.024,16.95,27.6,47.55,1355.0
1786369586.967393,-2.899,9.613,0.639,0.292,0.014,-0.077,16.95,26.85,48.75,1355.0
1786369586.9691138,-3.048,9.598,0.443,0.095,0.053,-0.1,17.25,27.9,48.0,1355.0
1786369587.173442,-3.165,9.431,1.288,-2.376,-0.343,-0.16,16.2,23.7,53.4,1341.0
1786369587.1735682,-3.141,9.151,1.633,-2.766,-0.411,-0.197,14.85,23.1,54.45,1341.0
1786369587.1736035,-2.974,8.849,2.591,-3.087,-0.499,-0.021,14.4,20.85,55.8,1403.0
1786369587.3767948,-1.568,7.69,6.002,-2.296,-0.299,0.492,6.6,6.45,62.55,53.0
1786369587.376853,-1.401,6.476,6.603,-1.999,0.02,0.534,5.7,2.4,61.5,53.0
1786369587.3768747,-1.781,5.988,6.96,-1.761,0.246,0.263,7.2,2.85,61.2,53.0
1786369587.5823889,-1.587,4.824,7.518,-0.192,-0.046,0.026,8.25,-3.6,60.15,62.0
1786369587.58244,-1.489,4.877,7.57,0.043,0.097,0.026,7.8,-3.0,59.85,62.0
1786369587.582461,-1.846,5.076,7.518,0.122,0.178,-0.011,7.95,-3.6,59.4,62.0
1786369587.7866237,-1.951,4.82,7.501,1.0,0.186,-0.2,9.45,-1.65,60.45,86.0
1786369587.7866948,-2.243,4.934,7.209,1.567,0.183,-0.338,8.85,-1.5,62.85,86.0
1786369587.7869868,-2.215,5.298,6.74,2.054,0.127,-0.366,8.25,1.35,61.2,86.0
1786369587.9973516,-2.339,8.602,2.016,3.958,0.767,0.268,12.45,14.1,54.15,231.0
1786369587.9974024,-2.234,9.045,1.774,3.846,0.617,0.074,11.85,14.25,55.05,231.0
1786369587.997424,-2.294,9.086,1.178,3.651,0.508,-0.072,14.25,17.1,52.8,231.0
1786369588.1943398,-3.038,9.811,-0.809,0.225,0.324,-0.508,18.0,29.1,47.55,1118.0
1786369588.4014585,-2.195,9.998,0.989,-4.288,-0.403,0.683,16.65,21.15,58.05,898.0
1786369588.4015768,-2.255,9.596,2.143,-5.119,-0.487,0.888,14.25,11.7,64.8,1201.0
1786369588.401604,-2.306,9.529,2.99,-5.143,-0.443,1.179,15.75,9.75,65.25,1201.0
1786369588.6059458,-1.396,6.634,6.627,-1.063,0.155,0.094,15.9,-4.95,60.6,34.0
1786369588.606033,-1.537,6.4,6.888,-0.871,-0.005,0.177,15.45,-4.8,61.5,34.0
1786369588.606068,-1.384,6.021,7.063,-0.807,-0.216,0.092,15.15,-4.95,59.85,52.0
1786369588.8070602,-0.852,5.291,7.635,0.193,0.161,0.019,14.4,-8.1,59.1,40.0
1786369588.810875,-1.101,5.607,7.582,0.167,0.183,-0.014,14.7,-8.7,59.4,40.0
1786369588.8109183,-1.178,5.495,7.563,0.23,0.02,-0.022,14.25,-9.75,58.95,47.0
1786369589.0158005,-0.692,5.504,7.013,1.291,0.274,-0.526,12.45,-5.85,61.5,52.0
1786369589.0158515,-1.13,5.648,6.785,1.779,0.355,-0.705,12.0,-4.8,60.75,52.0
1786369589.0158722,-1.642,5.986,6.364,2.342,0.346,-0.777,10.8,-2.25,62.1,52.0
1786369589.220529,-2.274,9.706,0.656,4.181,0.475,0.207,9.6,17.7,54.45,1244.0
1786369589.2205856,-2.693,10.199,0.204,3.83,0.166,0.098,8.85,19.2,52.95,1244.0
1786369589.2206087,-2.557,10.417,0.014,3.328,-0.057,0.032,9.45,19.8,51.3,1244.0
1786369589.4249704,-2.184,10.211,0.146,2.638,-0.036,-0.034,9.6,23.55,49.2,1244.0
1786369589.4250374,-2.234,10.798,0.124,1.861,0.014,-0.007,9.75,23.25,48.75,1299.0
1786369589.4250705,-2.018,10.585,-0.364,0.569,0.187,-0.473,10.35,24.3,47.4,1299.0
1786369589.6283317,-3.225,10.664,1.326,-4.765,-0.208,0.354,15.45,22.5,55.65,1044.0
1786369589.6283824,-3.385,10.036,1.887,-5.633,-0.622,0.5,13.95,17.1,60.15,1044.0
1786369589.833897,-2.193,9.56,2.009,-6.035,-0.85,0.699,13.2,15.9,60.75,1044.0
1786369589.8339372,-1.575,7.57,3.565,-5.929,-0.541,0.951,6.75,7.8,65.55,42.0
1786369590.0392542,-1.281,5.629,7.125,1.968,-0.07,-0.49,6.75,-7.5,59.4,62.0
1786369590.039524,-1.372,6.742,5.509,3.326,-0.28,-0.824,7.2,-1.65,60.75,62.0
1786369590.0398407,-2.619,5.725,3.237,3.747,-0.409,-1.262,4.95,-0.45,60.45,62.0
1786369590.244011,-1.628,10.223,0.618,3.677,-0.086,0.347,6.3,16.5,49.65,1376.0
1786369590.244064,-1.8,10.393,0.424,3.022,-0.189,0.333,6.3,18.15,49.2,1376.0
1786369590.244086,-1.549,10.527,0.508,2.285,-0.224,0.292,5.7,19.05,48.3,1376.0
1786369590.4550016,-2.555,9.95,-0.855,-0.351,0.213,0.062,9.45,21.75,47.25,1346.0
1786369590.4551013,-2.849,9.867,-0.871,-0.45,-0.05,0.073,9.75,22.95,46.8,1346.0
1786369590.4551363,-2.363,9.773,-0.792,-0.592,-0.118,0.096,10.05,22.8,44.85,1346.0
1786369590.6543572,-1.36,9.491,1.935,-3.75,0.239,0.408,7.05,13.05,56.55,1310.0
1786369590.6544266,-1.786,9.529,2.476,-4.033,0.19,0.715,9.3,9.6,57.75,1310.0
1786369590.6544552,-2.006,8.813,3.168,-4.12,0.089,0.769,7.35,10.8,60.6,1310.0
1786369590.858713,-1.647,6.665,6.541,-1.429,-0.228,0.208,7.95,-7.8,57.9,38.0
1786369590.8588142,-0.733,5.619,7.128,-1.179,-0.367,0.216,7.35,-10.05,58.8,38.0
1786369590.8588483,-0.587,5.794,7.324,-1.014,-0.302,0.215,8.25,-12.15,59.4,67.0
1786369591.0630808,-0.912,5.385,7.434,0.271,0.27,-0.044,10.8,-12.75,56.25,54.0
1786369591.0631208,-1.027,5.219,7.676,0.227,0.139,-0.061,10.05,-15.0,56.25,54.0
1786369591.2688043,-1.774,6.706,5.363,3.562,0.153,-0.8,6.75,-3.6,61.5,47.0
1786369591.2688591,-1.82,5.246,4.264,3.879,0.074,-1.014,4.05,-1.05,62.85,47.0
1786369591.2688832,-2.756,7.477,3.364,4.34,-0.086,-0.798,5.85,3.0,61.8,41.0
1786369591.480202,-1.52,9.237,0.615,4.882,0.289,0.059,8.25,12.15,56.4,41.0
1786369591.4802516,-2.318,10.008,0.069,4.523,0.172,0.046,9.3,18.15,53.7,1044.0
1786369591.4802747,-2.354,10.369,-0.496,4.099,-0.015,0.009,8.1,20.4,51.75,1044.0
1786369591.6841798,-2.497,8.669,-1.908,-0.201,-0.049,0.16,19.5,32.55,45.3,717.0
1786369591.6842341,-2.595,8.799,-1.927,-0.169,-0.045,0.097,18.3,29.85,45.75,717.0
1786369591.6842618,-2.588,8.815,-1.97,-0.192,-0.054,0.04,17.7,31.05,45.75,717.0
1786369591.8824515,-2.239,10.149,0.172,-2.834,0.063,0.222,16.2,25.65,52.8,736.0
1786369591.8825538,-2.334,10.072,0.204,-3.7,-0.203,0.322,15.45,23.25,53.1,736.0
1786369591.8825872,-2.107,9.653,1.003,-3.932,-0.316,0.401,15.45,22.5,56.4,736.0
1786369592.0876687,-0.613,5.904,5.947,-1.737,0.081,0.716,9.6,0.3,58.5,33.0
1786369592.0877237,-0.622,6.182,5.892,-1.127,0.281,0.437,11.1,-1.05,58.05,33.0
1786369592.0877469,-0.989,6.546,5.952,-0.78,0.385,0.202,10.95,-3.15,57.45,33.0
1786369592.2919595,-1.099,6.366,5.816,1.695,0.48,-0.485,9.3,-1.8,61.8,41.0
1786369592.292026,-1.705,6.981,5.162,2.125,0.408,-0.652,9.0,-4.05,59.4,41.0
1786369592.2920513,-1.798,7.503,4.63,2.537,0.349,-0.871,9.0,0.45,62.7,41.0
1786369592.49669,-2.734,10.252,0.17,3.431,0.388,0.763,14.7,20.55,56.4,825.0
1786369592.4967573,-2.373,10.257,0.271,3.141,0.23,0.794,15.45,22.2,54.6,825.0
1786369592.4967852,-2.155,10.25,0.077,2.886,0.207,0.615,15.75,22.5,54.9,825.0
1786369592.701717,-1.908,9.548,-3.041,0.7,0.796,-0.455,21.75,35.25,48.75,608.0
1786369592.7017872,-1.772,9.929,-3.335,0.521,0.844,-0.46,22.65,36.3,49.65,481.0
1786369592.701816,-2.064,9.72,-3.184,0.231,0.767,-0.508,24.9,37.8,49.95,481.0
1786369592.9067767,-1.8,11.193,-1.396,-5.83,-0.353,-0.815,27.75,31.95,61.35,479.0
1786369592.906847,-1.738,11.459,-1.135,-6.693,-0.586,-0.564,27.0,24.45,67.5,867.0
1786369592.9068747,-1.623,11.076,-0.175,-7.235,-0.952,0.233,25.2,18.9,70.2,867.0
1786369593.1127903,-0.91,5.306,6.792,0.312,-0.382,0.076,25.95,-11.85,66.9,45.0
1786369593.1128466,-0.338,5.555,6.675,0.464,-0.241,0.027,24.0,-12.15,65.25,45.0
1786369593.1128774,-0.316,5.677,6.572,0.594,0.015,-0.109,23.55,-10.95,67.05,45.0
1786369593.3176355,-1.719,10.089,0.934,4.042,-0.899,0.449,20.25,10.5,67.8,43.0
1786369593.3176982,-1.381,9.546,0.807,3.854,-0.867,0.49,19.5,11.7,66.0,43.0
1786369593.3177238,-0.967,9.831,0.383,3.366,-0.567,0.751,19.65,19.65,60.3,206.0
1786369593.5194123,-0.548,11.143,0.065,-0.068,-0.061,-0.037,18.9,25.05,54.45,772.0
1786369593.7303262,-1.381,10.132,-0.259,-1.691,-0.053,0.146,17.7,26.4,56.4,732.0
1786369593.7303703,-1.642,10.094,0.225,-2.17,0.092,0.45,19.5,23.25,57.15,732.0
1786369593.9303856,-0.642,5.511,7.013,-0.018,0.719,0.645,20.55,-23.7,57.9,40.0
1786369593.9304538,-0.709,5.835,7.049,0.129,0.676,0.567,21.15,-23.55,59.55,40.0
1786369593.930512,-0.658,5.574,7.362,0.255,0.608,0.473,23.1,-23.1,60.3,40.0
1786369594.136448,-1.281,5.576,6.333,1.938,1.034,-0.283,24.0,-16.35,66.3,37.0
1786369594.136585,-1.355,5.88,5.777,2.972,1.018,-0.106,24.9,-14.55,66.9,37.0
1786369594.1366165,-1.709,6.292,5.025,3.609,0.996,0.049,24.3,-13.65,70.05,37.0
1786369594.3403275,0.172,11.451,-0.948,4.661,0.151,0.68,28.2,23.1,66.9,267.0
1786369594.3404062,0.496,11.229,-1.046,3.51,0.399,0.341,28.95,25.5,67.2,267.0
1786369594.3404422,0.283,11.334,-1.188,2.411,0.644,0.153,31.2,28.5,67.65,267.0
1786369594.545302,-0.469,9.56,-2.887,-0.957,0.103,-0.218,36.45,37.5,65.4,154.0
1786369594.545358,-0.702,9.594,-2.777,-1.219,-0.007,-0.286,38.85,37.2,66.0,154.0
1786369594.545381,0.074,9.357,-2.629,-1.477,0.145,-0.242,38.85,36.15,68.55,154.0
1786369594.7499783,-0.287,7.338,3.666,-1.805,-0.118,0.347,33.15,-0.75,70.95,63.0
1786369594.750031,0.579,7.283,4.209,-1.007,-0.197,0.242,32.55,-3.15,69.6,43.0
1786369594.750056,0.656,7.752,4.113,-0.623,-0.045,0.36,34.35,-4.05,69.6,43.0
1786369594.9543405,0.991,8.698,4.384,0.397,0.145,0.329,36.6,-6.75,72.9,48.0
1786369594.9544122,1.274,8.796,4.231,0.358,0.291,0.412,36.6,-6.3,74.1,48.0
1786369594.9544423,1.226,8.825,4.125,0.269,0.432,0.452,37.8,-6.75,74.1,48.0
1786369595.158881,1.729,8.222,4.532,0.04,0.619,0.681,42.45,-4.95,73.5,44.0
1786369595.1589196,1.858,7.927,4.477,-0.018,0.67,0.69,42.75,-4.5,75.3,49.0
1786369595.1589377,1.566,7.819,4.468,-0.002,0.672,0.673,42.6,-6.75,74.1,49.0
1786369595.364271,1.013,7.551,4.199,0.343,0.1,0.208,46.2,-4.95,74.55,45.0
1786369595.3643177,1.18,8.047,4.3,0.38,-0.078,0.182,45.75,-3.75,73.95,45.0
1786369595.3643384,1.415,8.363,4.377,0.347,-0.179,0.103,47.7,-3.75,74.55,57.0
1786369595.569396,1.413,8.377,4.463,0.283,-0.222,0.044,46.35,-2.4,75.6,57.0
1786369595.5694559,1.745,8.473,4.369,0.198,-0.18,0.063,45.0,-1.8,75.3,57.0
1786369595.5695226,1.848,8.387,4.324,0.121,-0.052,0.101,46.35,-3.15,75.15,57.0
1786369595.7743874,1.815,8.523,3.433,0.049,0.006,-0.112,44.4,-0.9,75.15,43.0
1786369595.7744563,1.829,8.478,3.412,0.065,-0.079,-0.128,46.35,-0.75,74.25,43.0
1786369595.7745328,2.16,8.528,3.395,0.068,-0.098,-0.121,45.45,-1.5,76.5,43.0
1786369595.9782681,1.748,8.693,3.553,0.052,-0.064,-0.041,44.85,0.9,74.1,48.0
1786369595.9783213,1.748,8.705,3.608,0.038,0.016,-0.056,44.25,1.05,75.75,48.0
1786369595.978344,1.719,8.633,3.584,0.038,0.051,-0.072,45.75,1.5,76.5,48.0
1786369596.1835737,1.657,8.633,3.486,0.002,0.047,-0.051,45.0,-0.3,75.3,44.0
1786369596.1836267,1.499,8.701,3.51,-0.016,-0.007,-0.051,42.9,0.45,75.9,44.0
1786369596.1836495,1.554,8.724,3.462,-0.028,-0.044,-0.06,43.95,0.3,75.0,52.0
1786369596.388013,1.489,8.698,3.426,-0.014,0.056,-0.016,44.4,-0.15,75.6,47.0
1786369596.3880777,1.372,8.777,3.496,-0.011,0.007,-0.027,43.95,0.3,74.55,47.0
1786369596.3881054,1.453,8.815,3.505,-0.02,-0.031,-0.031,45.45,-0.3,75.75,47.0
1786369596.592561,1.472,8.648,3.431,-0.039,-0.005,-0.034,45.45,0.75,74.25,54.0
1786369596.5926294,1.614,8.693,3.608,-0.011,-0.018,-0.052,44.85,1.35,75.15,54.0
1786369596.5926619,1.635,8.736,3.651,-0.012,-0.053,-0.071,44.7,1.05,75.0,54.0
1786369596.798063,1.688,8.375,3.39,-0.024,-0.015,-0.037,44.7,0.0,73.95,57.0
1786369596.7981174,1.484,8.353,3.361,-0.011,-0.043,-0.076,43.5,0.75,75.3,57.0
1786369596.7981417,1.374,8.243,3.352,-0.003,-0.105,-0.115,42.75,1.05,74.55,57.0
1786369597.0024602,1.13,8.641,3.433,-0.068,-0.156,-0.35,41.7,0.3,75.0,49.0
1786369597.0025935,1.099,8.784,3.333,-0.084,-0.132,-0.384,41.55,0.45,75.15,49.0
1786369597.002625,0.936,8.794,3.187,-0.052,-0.152,-0.432,41.85,0.45,75.15,49.0
1786369597.2068427,1.037,8.42,2.109,0.534,-0.512,-0.269,39.0,3.0,73.95,41.0
1786369597.206893,1.001,8.475,1.937,0.776,-0.656,-0.133,37.35,4.05,72.9,41.0
1786369597.2069156,0.934,8.428,1.844,0.874,-0.787,-0.077,39.3,4.8,74.1,41.0
1786369597.4128153,4.585,7.982,3.397,-1.569,-1.559,0.049,27.15,-0.3,67.65,59.0
1786369597.4129004,3.462,7.441,3.654,-0.959,-0.451,-0.542,25.2,0.75,67.2,57.0
1786369597.4129298,2.617,8.025,3.529,-0.52,0.437,-0.637,26.4,-0.75,65.85,57.0
1786369597.6182125,-0.989,8.037,-0.014,3.567,1.712,-1.244,28.5,16.8,66.75,55.0
1786369597.6182823,-2.607,10.534,-1.427,3.602,1.18,-1.229,31.05,20.55,66.75,80.0
1786369597.6183105,-2.504,10.027,-1.817,3.542,0.831,-0.88,31.65,23.1,66.15,80.0
1786369597.821855,-4.537,11.995,-0.63,-1.263,-1.217,0.339,31.95,36.3,65.1,152.0
1786369597.8219256,-4.678,11.617,-0.103,-1.843,-1.489,0.407,31.65,32.85,64.65,184.0
1786369597.8219547,-4.003,10.757,0.812,-2.177,-1.493,0.321,28.8,31.8,63.75,184.0
1786369598.0261996,-1.899,8.09,2.061,1.855,0.791,-0.339,22.8,18.3,63.45,55.0
1786369598.0262372,-2.078,8.377,1.372,2.462,0.926,-0.241,22.65,20.4,62.1,55.0
1786369598.026253,-2.614,8.708,0.661,2.777,0.896,-0.129,26.4,22.8,63.6,55.0
1786369598.2312984,-1.918,10.233,-0.453,-2.01,-0.198,0.208,29.55,29.55,61.5,820.0
1786369598.231358,-2.033,10.274,-0.417,-3.128,-0.336,0.468,28.05,29.55,61.2,820.0
1786369598.2313836,-1.973,10.362,-0.761,-4.103,-0.537,0.7,28.05,25.2,63.75,820.0
1786369598.4367995,-0.381,6.031,5.298,-2.381,-0.445,0.657,26.25,-5.85,63.0,74.0
1786369598.4368787,0.596,6.364,5.499,-1.84,-0.071,0.496,26.25,-6.3,61.95,74.0
1786369598.4369135,0.251,6.507,6.134,-1.543,0.259,0.274,26.7,-8.1,61.35,74.0
1786369598.640562,0.448,5.545,6.534,1.748,0.674,-1.039,25.95,-9.6,63.9,60.0
1786369598.640615,-0.263,5.693,6.139,2.51,0.711,-1.275,25.65,-6.9,64.35,60.0
1786369598.6406364,-0.795,6.845,5.638,3.301,0.632,-1.234,25.05,-3.15,64.8,75.0
1786369598.8516417,-1.743,9.239,1.865,3.994,0.32,-0.119,24.0,16.8,62.7,74.0
1786369598.851712,-1.144,9.258,0.962,4.086,0.371,-0.215,26.25,22.95,64.5,74.0
1786369598.851737,-1.566,9.855,-0.266,4.255,0.461,-0.252,27.3,26.4,61.5,74.0
1786369599.05061,-1.676,10.048,-2.713,0.227,-0.092,-0.191,33.15,41.7,49.65,483.0
1786369599.0506983,-1.932,9.826,-2.885,0.101,-0.039,-0.226,32.4,41.25,48.45,483.0
1786369599.0507298,-2.004,9.421,-2.725,-0.098,0.023,-0.215,33.3,42.6,50.1,483.0
1786369599.2567909,-3.146,10.127,0.292,-7.161,-1.74,1.275,24.45,19.2,67.2,867.0
1786369599.2568715,-2.313,9.357,0.378,-7.152,-1.967,1.727,23.25,13.65,70.05,867.0
1786369599.462361,-1.939,6.553,6.634,0.06,0.479,-0.125,21.0,-10.95,58.2,50.0
1786369599.4624095,-1.877,6.632,6.744,-0.035,-0.048,-0.308,22.35,-11.85,60.6,50.0
1786369599.4624307,-1.159,6.428,6.701,-0.209,-0.519,-0.33,19.5,-13.65,58.95,50.0
1786369599.6647975,-1.7,9.091,2.737,4.115,-0.636,-0.983,13.65,8.4,61.05,69.0
1786369599.6648474,-1.848,8.373,2.564,4.281,-0.598,-0.445,15.15,12.75,58.8,69.0
1786369599.6648693,-0.69,9.182,1.865,4.442,-0.511,0.305,18.0,16.8,57.9,75.0
1786369599.8699577,0.989,10.855,2.014,-2.809,-0.727,1.489,10.5,14.1,52.8,803.0
1786369599.8700185,1.058,10.477,2.148,-3.136,-0.692,1.296,10.95,11.7,53.4,803.0
1786369599.8700438,1.264,10.233,2.416,-3.311,-0.706,1.237,9.75,10.2,51.3,803.0
1786369600.0738852,2.023,7.566,4.377,-0.48,0.938,0.039,9.75,-6.75,52.8,48.0
1786369600.0739527,1.76,7.446,4.48,-0.087,0.896,-0.276,7.8,-5.4,52.95,48.0
1786369600.282323,-1.664,9.378,-0.63,4.626,0.744,-0.817,15.6,16.5,52.95,1294.0
1786369600.282383,-1.149,10.446,-0.888,4.217,0.365,-0.538,17.25,21.45,52.35,1294.0
1786369600.2824085,-0.4,10.376,-0.445,3.41,0.21,-0.485,18.0,22.5,52.8,1294.0
1786369600.4851427,-0.666,9.658,-2.114,0.117,0.362,-0.335,20.25,31.8,48.75,690.0
1786369600.4852004,-0.639,9.5,-2.093,-0.272,0.251,-0.364,20.25,31.8,48.75,690.0
1786369600.4852214,-0.625,9.263,-2.251,-0.375,0.188,-0.364,22.5,34.5,48.0,690.0
1786369600.688551,-1.896,10.511,1.63,-6.02,-0.102,-0.016,22.35,20.85,62.55,801.0
1786369600.688617,-1.504,9.529,2.531,-6.341,-0.371,0.46,20.25,12.45,65.55,801.0
1786369600.6886444,-1.331,7.518,3.311,-6.149,-0.504,0.604,19.05,8.25,67.05,801.0
1786369600.893418,-1.551,5.464,7.384,-0.458,-0.033,-0.022,20.85,-12.3,57.3,51.0
1786369600.8934677,-1.245,5.361,7.396,-0.293,-0.205,-0.036,21.9,-11.85,56.55,51.0
1786369600.8935266,-1.07,5.339,7.398,-0.261,-0.325,-0.07,21.6,-12.3,57.0,51.0
1786369601.0982823,-0.742,5.073,7.951,0.094,0.035,-0.038,20.4,-14.25,55.5,50.0
1786369601.0983315,-0.962,4.887,8.124,0.206,-0.023,-0.069,19.65,-12.3,55.8,50.0
1786369601.0983517,-0.812,4.784,7.985,0.75,-0.028,-0.184,19.65,-12.75,56.25,50.0
1786369601.302985,-2.025,9.857,1.252,3.736,0.39,0.001,14.7,15.6,55.35,52.0
1786369601.3030608,-2.126,9.998,0.881,3.361,0.252,0.001,15.15,18.9,55.05,812.0
1786369601.3030965,-1.618,10.209,0.627,2.954,0.287,-0.087,15.9,20.4,54.0,812.0
1786369601.5080786,-3.1,9.471,-1.997,0.543,0.326,-0.463,24.0,34.2,47.55,709.0
1786369601.5081315,-3.062,9.134,-2.076,0.387,0.208,-0.291,22.5,34.95,49.05,675.0
1786369601.5081546,-2.983,9.249,-2.294,0.193,0.097,-0.138,22.65,36.3,46.65,675.0
1786369601.7130072,-3.335,11.76,0.122,-7.567,-1.106,0.786,26.7,23.85,63.15,695.0
1786369601.7130537,-2.976,11.214,0.96,-8.531,-1.709,1.19,28.5,20.55,65.25,695.0
1786369601.7130737,-2.488,9.974,1.176,-8.687,-2.658,1.466,24.45,13.05,66.9,695.0
1786369601.9181626,-1.317,5.191,7.42,-0.205,-0.113,-0.007,25.65,-8.85,51.75,37.0
1786369601.9182165,-0.594,5.076,7.19,-0.393,-0.567,-0.18,25.2,-10.8,52.2,58.0
1786369601.91824,-0.144,4.31,7.551,-0.415,-0.669,-0.268,24.15,-10.35,51.75,58.0
1786369602.1222017,0.136,4.262,7.446,1.706,0.05,-0.395,21.6,-7.65,51.75,55.0
1786369602.1222744,0.342,4.36,6.898,2.368,0.281,-0.546,19.65,-6.45,53.7,55.0
1786369602.1223047,-0.577,5.416,5.883,3.075,0.303,-0.461,21.15,-4.95,52.2,49.0
1786369602.329793,-0.625,10.297,2.215,2.829,-0.403,0.155,10.95,10.2,55.65,63.0
1786369602.3298535,-0.479,10.041,2.571,2.007,-0.366,0.19,10.2,10.5,55.65,63.0
1786369602.3298783,-0.728,10.432,2.964,1.338,-0.411,0.187,9.6,10.35,55.05,63.0
1786369602.5344207,-0.096,9.78,2.969,-0.287,-0.319,0.281,7.35,9.15,52.5,151.0
1786369602.534535,-0.098,9.835,2.923,-0.319,-0.355,0.292,7.95,8.7,50.55,151.0
1786369602.7382672,1.571,9.163,3.11,-0.393,-0.024,0.047,8.1,8.1,49.95,92.0
1786369602.738352,1.499,9.239,3.014,-0.562,0.228,-0.02,7.35,8.4,49.95,92.0
1786369602.7383826,1.113,8.806,2.813,-0.666,0.242,0.034,7.95,7.05,49.05,92.0
1786369602.9414623,1.025,8.531,4.187,-0.344,-0.202,0.223,9.3,-0.3,51.45,72.0
1786369602.941574,1.587,8.483,4.678,-0.358,-0.174,0.197,8.7,-1.35,52.05,72.0
1786369602.9416,1.901,8.672,4.752,-0.355,0.012,0.133,7.05,-3.45,50.4,72.0
1786369603.1461399,1.08,7.975,4.714,0.097,0.529,-0.038,10.2,-8.7,54.15,76.0
1786369603.1461892,0.496,8.068,4.635,-0.013,0.57,0.055,11.1,-7.2,54.45,76.0
1786369603.1462114,0.005,8.808,4.781,-0.196,0.311,0.196,10.2,-7.8,54.15,76.0
1786369603.351101,1.391,7.999,4.633,-0.535,0.943,0.435,10.5,-7.5,56.1,38.0
1786369603.351178,0.816,7.934,4.633,-0.497,0.667,0.457,12.15,-10.8,59.55,38.0
1786369603.3512115,1.015,7.168,4.633,-0.13,0.355,0.375,12.15,-10.8,59.55,38.0
1786369603.5566392,-1.446,9.385,0.761,4.204,1.635,-0.91,17.85,8.85,59.1,1108.0
1786369603.5567243,-1.504,9.591,0.601,4.189,1.484,-0.829,18.3,12.15,58.2,1108.0
1786369603.5567598,-1.554,10.106,0.017,4.051,1.39,-0.935,21.3,17.1,56.85,1108.0
1786369603.760766,-1.334,9.68,-1.525,-0.193,0.394,-0.289,29.7,33.15,56.25,674.0
1786369603.7608156,-1.283,9.562,-1.666,-0.235,0.473,-0.266,31.05,30.3,55.65,674.0
1786369603.7608373,-1.556,9.62,-1.563,-0.376,0.517,-0.243,29.85,31.5,55.35,674.0
1786369603.9689035,-0.215,8.492,2.72,-7.845,-1.378,1.753,27.3,1.35,73.35,59.0
1786369603.96895,-2.547,-0.177,7.908,-7.839,-0.75,1.418,21.0,-12.15,71.1,59.0
1786369603.9689705,1.863,8.248,6.898,-5.698,-1.228,2.244,23.25,-16.8,65.55,59.0
1786369604.170337,0.019,5.32,6.481,0.494,0.243,0.048,29.85,-24.9,60.15,48.0
1786369604.1705537,-0.098,5.868,6.567,0.372,-0.186,0.107,29.25,-26.1,61.5,53.0
1786369604.1705778,0.242,5.708,6.914,0.178,-0.432,0.128,28.95,-24.3,60.6,53.0
1786369604.3753226,-0.326,5.725,7.216,0.637,-0.039,-0.203,25.05,-24.9,61.95,52.0
1786369604.3753948,-0.036,5.492,7.072,0.735,-0.009,-0.318,23.85,-25.5,62.1,63.0
1786369604.375431,0.409,5.31,6.768,1.01,0.083,-0.619,24.15,-22.35,62.1,63.0
1786369604.5797281,-2.763,9.735,0.85,3.541,0.708,-0.448,27.0,10.2,66.75,724.0
1786369604.5797825,-2.588,10.247,0.694,2.906,0.41,-0.416,28.05,12.9,67.8,724.0
1786369604.5798056,-2.576,10.448,0.548,2.438,0.279,-0.319,30.6,17.85,65.25,724.0
1786369604.7878144,-1.899,10.659,-0.982,-0.416,0.905,-0.209,36.75,31.2,62.1,766.0
1786369604.7879007,-1.784,10.58,-0.816,-0.916,1.01,0.027,37.5,30.45,62.85,766.0
1786369604.7879355,-1.604,10.918,-0.474,-1.576,1.051,0.357,39.3,28.8,64.2,766.0
1786369604.9902384,0.481,4.556,4.331,-6.686,0.226,2.527,41.25,-9.6,74.55,83.0
1786369604.9902985,2.571,7.393,7.161,-4.954,0.083,2.392,42.6,-17.1,67.8,83.0
1786369604.990324,2.437,3.79,7.072,-3.323,0.448,1.612,43.95,-20.4,64.35,83.0
1786369605.194856,1.125,4.973,7.408,-0.302,-0.504,0.344,53.1,-24.45,62.25,53.0
1786369605.194895,1.719,4.872,7.302,-0.15,-0.337,0.28,52.8,-24.3,62.55,53.0
1786369605.194918,1.954,4.92,7.429,0.025,-0.004,0.296,52.65,-24.9,61.95,53.0
1786369605.3997808,1.319,4.709,6.97,2.605,0.276,-1.284,50.85,-20.25,63.75,53.0
1786369605.3998332,1.293,4.63,6.438,3.634,0.363,-1.731,49.35,-18.75,67.05,53.0
1786369605.3998528,0.761,4.535,5.722,4.349,0.819,-1.852,47.25,-15.45,68.4,53.0
1786369605.6036086,-1.76,10.98,0.175,3.056,0.513,-0.551,52.35,20.25,67.5,753.0
1786369605.6036644,-2.248,11.413,-0.187,2.054,0.161,-0.437,54.15,21.45,66.75,753.0
1786369605.6036854,-2.148,11.183,-0.462,1.275,-0.087,-0.179,54.0,23.55,65.85,753.0
1786369605.8086514,-1.958,9.773,-1.104,-0.712,0.266,0.032,55.8,26.55,63.15,740.0
1786369605.8089547,-2.069,10.068,-0.345,-1.342,0.26,0.126,56.25,25.8,63.9,740.0
1786369605.808987,-2.26,10.872,0.079,-2.53,0.151,0.26,55.95,23.25,64.8,740.0
1786369606.0125911,1.731,8.159,6.553,-5.033,-0.088,1.759,60.9,-7.05,69.6,71.0
1786369606.0126421,1.975,4.041,7.19,-3.15,0.151,1.25,60.9,-8.7,68.55,71.0
1786369606.012667,0.567,4.97,6.184,-1.504,0.904,0.379,62.4,-11.4,64.5,71.0
1786369606.2183127,-0.074,5.947,7.163,-0.104,0.097,-0.039,62.85,-15.0,65.4,59.0
1786369606.2183688,0.041,5.746,7.202,-0.056,-0.026,-0.033,62.4,-14.85,63.45,59.0
1786369606.2183928,0.208,5.906,7.128,0.028,-0.112,-0.056,62.1,-16.5,63.9,59.0
1786369606.4227312,-0.074,5.27,2.816,4.75,0.071,-1.75,55.65,-6.75,66.3,81.0
1786369606.4228055,-0.874,8.645,1.954,5.494,-0.038,-1.668,54.45,-4.35,67.5,81.0
1786369606.4228275,-0.546,9.007,1.082,5.884,0.353,-1.193,53.55,-2.25,66.9,127.0
1786369606.6281636,-1.618,10.635,-0.85,0.769,-0.212,-0.111,51.9,27.15,65.25,127.0
1786369606.628208,-0.797,10.549,-1.13,0.451,-0.039,-0.262,52.35,27.9,62.25,127.0
1786369606.628227,-1.022,9.979,-1.456,0.208,0.347,-0.351,54.9,29.55,60.15,626.0
1786369606.8405967,-1.834,11.013,-0.141,-2.456,-0.029,0.626,56.7,26.85,63.0,588.0
1786369606.8406696,-2.004,11.27,-0.455,-3.744,-0.431,0.658,55.65,25.2,66.75,588.0
1786369606.8407044,-1.458,10.597,-0.433,-4.692,-0.677,0.723,53.7,22.5,68.25,820.0
1786369607.037726,1.472,5.231,6.244,-1.568,0.908,0.234,54.75,-9.6,67.2,46.0
1786369607.0377831,0.879,6.797,5.622,-0.425,1.504,0.024,57.9,-11.4,66.0,46.0
1786369607.0378075,-0.421,7.53,5.593,0.05,1.555,-0.041,57.75,-11.85,66.6,76.0
1786369607.2446544,1.128,6.182,6.352,-0.114,-0.392,-0.103,58.2,-12.45,67.8,64.0
1786369607.2447057,1.288,6.211,6.639,-0.02,-0.11,-0.071,57.3,-14.25,67.95,64.0
1786369607.2447278,1.183,6.235,6.546,0.158,0.102,-0.01,56.7,-13.2,67.5,64.0
1786369607.4477015,-0.608,8.803,0.977,5.641,-0.101,-0.941,55.5,1.05,69.15,49.0
1786369607.447755,-0.086,9.28,0.682,5.724,0.186,-0.552,55.05,8.4,68.7,49.0
1786369607.447777,-0.575,9.713,-0.168,5.44,0.39,-0.312,55.2,12.15,70.05,49.0
1786369607.6521833,-0.584,10.08,-1.571,-0.046,0.304,-0.534,55.95,29.55,61.95,604.0
1786369607.652246,-0.63,9.783,-1.736,-0.086,0.422,-0.455,57.75,31.65,61.8,604.0
1786369607.6522715,-1.166,9.555,-2.121,-0.038,0.379,-0.345,59.55,30.45,62.1,604.0
1786369607.857181,-1.008,10.223,-0.982,-1.691,0.005,0.625,60.15,27.9,63.75,652.0
1786369607.8572385,-1.381,10.458,-0.84,-2.513,-0.332,0.844,60.15,27.6,65.25,652.0
1786369607.8572628,-1.132,10.333,-0.929,-3.201,-0.683,0.973,56.7,22.95,69.3,652.0
1786369608.0605986,0.862,8.633,3.828,-3.01,0.849,0.97,55.2,3.15,76.35,732.0
1786369608.0606654,0.567,7.422,3.773,-2.465,1.303,0.494,57.0,0.75,76.8,55.0
1786369608.2662673,1.159,6.364,6.211,-0.663,0.152,-0.005,59.55,-12.3,67.95,45.0
1786369608.266318,1.087,6.136,6.378,-0.556,0.31,-0.063,57.9,-14.4,66.75,41.0
1786369608.26634,0.917,6.026,6.517,-0.292,0.388,-0.158,61.2,-15.6,67.5,41.0
1786369608.4714074,0.833,6.012,6.354,1.732,-0.185,-1.203,59.7,-13.2,66.3,45.0
1786369608.4715354,0.788,6.203,6.065,2.527,-0.1,-1.256,58.8,-11.55,66.6,51.0
1786369608.471588,-0.362,5.092,3.857,3.443,-0.185,-1.175,55.95,-9.0,66.0,51.0
1786369608.6759057,-1.116,10.81,0.632,2.309,-0.508,0.444,49.5,20.4,69.45,711.0
1786369608.6759553,-0.453,10.999,0.407,1.196,-0.715,0.415,50.1,21.45,66.75,839.0
1786369608.6759753,-0.081,10.652,0.443,0.292,-0.72,0.402,50.1,21.45,66.75,839.0
1786369608.8810983,-0.354,9.567,-0.024,-0.647,-0.067,0.244,50.1,19.05,67.5,763.0
1786369608.8811626,-0.184,9.414,0.072,-0.66,-0.152,0.349,51.15,16.8,70.35,725.0
1786369608.8811903,-0.433,9.443,0.055,-0.613,-0.28,0.45,50.55,19.2,68.7,725.0
1786369609.0857348,1.3,9.536,0.735,-0.297,-0.431,0.433,47.25,13.05,72.45,707.0
1786369609.0857966,1.377,9.589,0.785,-0.166,-0.352,0.22,47.1,11.7,71.55,703.0
1786369609.0858216,1.561,9.546,0.883,-0.138,-0.268,0.162,45.9,13.2,71.1,703.0
1786369609.29012,1.611,9.505,0.91,-0.251,-0.321,0.212,45.45,11.55,70.95,699.0
1786369609.2901897,2.023,9.426,1.01,-0.302,-0.355,0.241,45.45,11.85,71.25,699.0
1786369609.2902188,1.918,9.606,0.989,-0.383,-0.36,0.266,44.1,11.4,72.3,699.0
1786369609.494708,2.693,7.633,4.293,-1.96,-1.37,0.854,41.55,-13.2,68.85,110.0
1786369609.4947703,4.008,6.95,5.033,-1.569,-1.081,0.917,41.1,-14.85,69.6,110.0
1786369609.4948034,4.341,6.864,5.128,-1.199,-0.454,0.86,40.05,-18.75,68.25,110.0
1786369609.6986952,4.604,6.697,5.43,-0.092,0.526,0.195,41.85,-26.4,67.5,43.0
1786369609.6987681,3.582,6.869,5.169,-0.151,0.595,0.165,42.9,-26.4,69.3,43.0
1786369609.6987987,2.476,7.389,5.164,-0.393,0.092,0.159,42.0,-23.55,69.9,43.0
1786369609.9047818,4.717,6.97,5.416,-0.293,0.33,-0.102,40.2,-18.9,74.55,64.0
1786369609.9048579,4.274,7.113,5.121,-0.3,0.481,-0.17,41.1,-20.25,74.4,64.0
1786369609.9048927,3.632,6.85,5.009,-0.245,0.455,-0.173,41.55,-21.0,73.65,64.0
1786369610.1116817,2.978,5.954,4.46,2.603,0.29,-1.767,42.15,-18.3,70.8,56.0
1786369610.111737,2.176,6.701,3.718,3.461,0.441,-2.326,41.25,-17.7,68.4,56.0
1786369610.1117544,1.994,7.841,2.174,4.506,1.622,-2.094,41.7,-9.6,66.6,56.0
1786369610.314775,-0.871,10.867,0.488,1.895,0.01,-0.456,46.5,18.9,68.4,716.0
1786369610.3148425,-0.314,11.016,0.182,1.101,-0.184,-0.344,46.95,19.2,68.4,716.0
1786369610.3148706,-0.206,10.3,0.124,0.444,-0.301,-0.178,46.5,21.15,67.2,716.0
1786369610.5194058,-0.606,10.831,0.287,-2.243,0.502,-0.172,51.9,19.8,69.3,706.0
1786369610.5195353,-0.414,10.886,0.321,-3.093,0.41,-0.236,52.05,16.95,73.2,706.0
1786369610.5195787,-0.479,11.032,0.9,-3.929,0.337,-0.085,50.85,14.1,71.1,706.0
1786369610.7239218,0.285,7.898,4.219,-4.438,0.263,1.139,51.75,-8.85,75.75,155.0
1786369610.72399,0.723,1.413,13.053,-4.27,0.473,0.577,51.6,-11.7,75.15,155.0
1786369610.7240186,0.153,8.851,5.131,-3.068,0.549,1.039,52.35,-16.8,71.1,155.0
1786369610.9284515,1.02,5.885,5.997,0.991,-0.559,-0.09,50.4,-20.55,68.25,79.0
1786369610.9285233,0.824,5.954,5.859,1.679,-0.661,-0.326,51.15,-18.75,70.05,79.0
1786369610.928545,0.639,4.513,5.583,2.708,-0.867,-0.851,50.1,-17.85,69.3,79.0
1786369611.133848,0.067,10.491,-0.539,0.216,0.106,-0.62,51.0,21.9,67.2,713.0
1786369611.1339235,0.098,10.297,-0.682,0.066,0.202,-0.517,52.05,24.75,66.9,713.0
1786369611.133956,-0.223,10.099,-0.893,-0.012,0.284,-0.382,54.3,23.1,65.85,749.0
1786369611.542705,0.467,8.399,4.695,-6.5,0.528,1.622,50.25,-10.05,79.35,692.0
1786369611.5427597,-1.156,-2.825,9.244,-7.617,1.109,1.394,49.35,-12.15,79.2,692.0
1786369611.5427833,1.334,8.947,7.365,-5.139,0.677,1.509,54.3,-20.1,73.95,692.0
1786369611.9525225,-0.05,5.595,5.799,3.246,-0.295,-1.239,52.65,-22.8,66.9,61.0
1786369611.9525623,-1.389,4.906,3.754,3.93,-0.097,-1.299,50.25,-15.45,67.2,61.0
1786369611.9525788,-0.462,7.305,3.812,4.796,-0.232,-1.549,52.5,-14.55,70.2,61.0
1786369612.36214,-2.064,9.335,-2.397,-0.123,-0.139,0.111,62.1,26.55,61.05,521.0
1786369612.3621862,-1.791,9.234,-2.339,-0.158,-0.148,0.167,62.55,28.2,61.05,521.0
1786369612.3622062,-2.753,9.582,-2.5,-0.222,-0.185,0.201,63.15,27.9,60.45,521.0
1786369612.7732627,0.85,4.721,7.429,-0.371,-0.013,-0.127,59.55,-23.55,62.85,65.0
1786369612.7733388,1.149,4.855,7.221,0.055,0.123,-0.059,59.4,-21.75,63.0,55.0
1786369612.7733717,0.749,5.076,7.204,0.132,0.29,0.008,60.3,-20.85,63.9,55.0
1786369613.1811888,-1.022,10.975,-0.534,0.419,0.317,-0.815,54.75,22.8,64.65,716.0
1786369613.181239,-1.018,10.697,-0.891,0.252,0.367,-0.781,55.95,23.25,63.75,716.0
1786369613.18126,-1.279,10.283,-1.142,0.197,0.446,-0.698,57.15,23.7,63.45,716.0
1786369613.593232,-1.662,9.038,3.158,-5.298,-1.097,1.725,61.8,1.5,76.8,712.0
1786369613.5932775,-0.977,7.875,3.764,-5.066,-1.592,1.751,58.8,-3.45,75.75,712.0
1786369613.5932982,-2.131,5.272,4.168,-4.585,-1.768,1.919,53.7,-9.45,73.35,53.0
1786369614.0020962,1.099,5.291,7.506,0.158,-0.053,-0.018,57.15,-21.75,64.2,67.0
1786369614.0021513,1.231,5.255,7.535,0.402,-0.049,-0.134,56.25,-20.85,64.65,67.0
1786369614.0021758,1.35,5.145,7.369,0.918,0.1,-0.263,57.15,-19.8,65.25,33.0
1786369614.4099188,-1.817,9.929,-1.197,-0.395,-0.005,0.022,59.55,23.55,64.65,694.0
1786369614.4099705,-1.832,9.919,-1.243,-0.666,-0.11,0.177,60.3,22.35,63.15,694.0
1786369614.409993,-1.647,10.19,-0.831,-1.103,-0.142,0.293,58.65,23.7,64.5,694.0
1786369614.8212898,0.536,4.97,7.135,-0.584,-0.068,0.235,58.95,-24.15,61.5,38.0
1786369614.8213665,0.946,4.87,7.18,-0.557,-0.167,0.208,58.65,-23.25,60.45,38.0
1786369614.821399,1.037,4.523,7.446,-0.583,-0.155,0.049,58.2,-24.45,59.4,38.0
1786369615.2357419,0.029,9.495,0.745,6.161,0.127,-1.329,56.4,0.9,72.3,713.0
1786369615.2357986,-0.323,10.283,-0.029,5.913,0.206,-1.351,55.05,4.2,73.2,713.0
1786369615.2358217,-0.611,10.659,-0.148,5.403,0.358,-1.208,54.75,8.85,72.0,713.0
1786369615.6387649,-1.779,10.338,-0.354,-3.63,-0.195,0.332,63.9,21.0,69.3,574.0
1786369615.6388228,-1.717,10.932,-0.206,-4.235,-0.36,0.557,63.45,19.5,70.35,765.0
1786369615.6388485,-1.604,10.843,0.395,-4.804,-0.536,0.989,61.95,13.65,72.9,765.0
1786369616.051872,1.654,4.164,7.609,1.091,0.154,-0.464,57.9,-24.9,63.0,37.0
1786369616.051942,1.082,4.472,7.482,1.319,0.084,-0.71,54.9,-23.25,61.95,37.0
1786369616.051973,0.886,5.564,7.19,1.295,0.287,-0.574,54.15,-20.55,63.45,37.0
1786369616.4634418,-1.501,9.687,-0.527,0.449,-0.365,-0.165,49.65,18.75,69.3,717.0
1786369616.4635377,-1.46,9.584,-0.642,0.383,-0.225,-0.126,51.75,19.65,68.4,717.0
1786369616.463566,-1.779,9.443,-0.871,0.345,-0.205,-0.129,51.6,19.05,67.05,717.0
1786369616.867626,1.7,5.301,7.458,-1.593,0.518,0.353,45.9,-25.65,61.95,36.0
1786369616.867676,0.895,4.932,7.283,-0.756,1.242,0.053,48.0,-28.2,60.3,36.0
1786369616.8676965,-0.529,5.119,7.017,-0.18,1.374,-0.118,48.9,-27.9,60.15,36.0
1786369617.2769835,-0.584,4.855,5.473,3.854,0.137,-1.544,37.95,-21.15,69.45,44.0
1786369617.2770326,-1.666,5.679,4.36,4.358,0.177,-1.426,37.8,-18.75,70.05,44.0
1786369617.2770553,-1.803,8.844,2.066,5.042,-0.232,-1.658,38.1,-10.5,73.65,142.0
1786369617.6883123,-2.756,10.144,-0.843,-1.034,-0.036,0.187,41.7,21.15,68.7,702.0
1786369617.6883674,-2.66,10.906,0.091,-1.902,0.059,0.249,41.85,21.0,69.6,702.0
1786369617.688391,-2.808,11.722,0.702,-3.382,-0.02,0.438,41.85,19.8,69.6,696.0
1786369618.0966654,-0.646,4.942,7.07,0.155,-0.455,-0.018,47.85,-27.6,61.2,48.0
1786369618.0967116,-0.472,4.954,7.07,0.351,-0.359,-0.049,46.35,-27.6,62.25,48.0
1786369618.0967321,-0.488,5.112,7.151,0.534,-0.186,-0.045,46.65,-26.1,62.7,48.0
1786369618.5069425,-2.009,10.312,-0.354,4.206,0.612,-0.346,38.7,6.45,72.75,628.0
1786369618.507004,-1.853,10.685,-0.378,3.421,0.471,-0.335,37.2,12.3,72.0,628.0
1786369618.5070293,-2.423,10.69,-0.376,2.503,0.197,-0.256,39.6,15.6,71.1,628.0
1786369618.9173756,-1.089,11.083,0.424,-5.888,-0.205,1.38,51.3,8.85,79.35,695.0
1786369618.9174435,0.23,10.104,0.845,-6.526,-0.069,1.721,51.6,5.1,78.45,695.0
1786369618.9174728,0.73,9.515,1.551,-6.642,0.28,2.18,51.9,-0.9,78.9,695.0
1786369619.325858,0.261,5.689,6.986,0.707,-0.278,-0.024,60.45,-21.75,67.05,64.0
1786369619.3259013,0.297,5.906,6.869,0.765,-0.358,-0.178,59.4,-20.25,67.05,38.0
1786369619.3259196,0.448,6.136,6.912,0.759,-0.378,-0.227,60.15,-18.3,68.55,38.0
1786369619.7363698,0.778,9.503,-0.031,0.02,0.022,-0.105,49.65,19.5,68.25,685.0
1786369619.7364545,0.551,9.51,-0.105,0.001,0.238,-0.085,53.1,19.8,67.8,691.0
1786369619.7365296,-0.043,9.651,-0.062,-0.109,0.308,-0.01,53.1,20.25,69.6,691.0
1786369620.149203,0.424,5.411,7.35,-0.794,0.187,0.255,60.45,-22.2,64.5,41.0
1786369620.1492496,0.045,5.456,7.238,-0.446,0.181,0.106,61.2,-20.25,64.2,41.0
1786369620.1492708,-0.069,5.423,7.365,-0.334,0.065,0.06,61.95,-21.75,62.7,41.0
1786369620.3489864,0.515,5.409,7.463,-0.12,0.05,-0.071,62.1,-22.8,64.65,58.0
1786369620.3490696,-0.328,5.27,5.049,4.688,-0.202,-1.273,56.25,-15.45,68.4,40.0
1786369620.349106,-1.231,6.357,3.654,5.231,-0.327,-1.09,55.95,-10.2,71.1,54.0
1786369620.554223,-0.376,8.586,2.598,5.587,-0.611,-1.238,54.45,-10.2,72.3,54.0
1786369620.554285,-0.86,9.929,1.099,5.605,-0.799,-1.364,55.5,-6.9,72.0,54.0
1786369620.5543118,0.409,9.941,0.52,5.353,-0.447,-1.19,54.0,0.0,72.75,54.0
1786369620.758635,-1.597,10.673,0.16,2.466,0.097,-0.392,54.75,13.8,69.9,706.0
1786369620.7587051,-1.484,10.415,-0.031,1.862,-0.04,-0.457,52.5,16.5,68.7,706.0
1786369620.758733,-1.013,10.195,-0.546,1.399,-0.043,-0.569,54.3,16.2,67.2,706.0
1786369620.965472,-1.468,11.183,-0.388,-4.278,-0.415,0.835,59.85,17.4,70.2,611.0
1786369620.9655635,-1.24,10.104,-0.093,-5.036,-0.489,1.254,58.8,12.75,73.95,611.0
1786369620.9655876,-1.504,10.161,0.347,-5.465,-0.857,1.699,60.15,7.8,75.9,611.0
1786369621.168728,1.173,4.946,7.491,0.235,0.246,-0.047,62.7,-24.9,61.95,56.0
1786369621.1687925,0.752,5.018,7.714,0.017,0.227,-0.014,62.7,-24.45,61.95,56.0
1786369621.1688147,0.783,4.511,7.817,0.101,-0.213,-0.069,62.4,-25.2,63.45,56.0
1786369621.376726,1.166,4.482,7.76,0.386,-0.209,-0.161,60.3,-27.0,62.55,56.0
1786369621.376769,1.324,4.47,7.599,0.802,-0.069,-0.356,60.3,-26.25,62.1,38.0
1786369621.3767881,1.336,4.427,7.535,1.331,0.055,-0.631,58.95,-24.15,63.45,38.0
1786369621.5779288,-0.9,11.145,0.153,1.274,0.209,-0.475,50.25,18.45,67.2,754.0
1786369621.577989,-1.233,10.949,0.024,0.604,0.17,-0.461,53.25,19.2,67.65,754.0
1786369621.5780172,-1.046,10.915,-0.436,0.168,0.167,-0.486,54.3,19.65,66.9,754.0
1786369621.785253,-1.18,10.544,-0.742,-0.087,0.162,-0.54,54.75,21.15,66.6,754.0
1786369621.7853272,-1.379,10.022,-1.137,-0.052,0.221,-0.493,56.55,19.65,66.9,754.0
1786369621.7853587,-1.712,9.737,-1.384,-0.049,0.352,-0.358,56.55,21.9,65.85,723.0
1786369621.9897673,-1.958,9.699,-1.209,-0.527,-0.03,0.068,58.95,20.55,66.0,674.0
1786369621.9898283,-0.51,8.011,6.567,-3.759,0.46,1.668,57.75,-14.25,70.95,45.0
1786369621.9898531,-0.591,5.997,6.637,-2.694,0.44,0.791,61.2,-17.85,68.25,45.0
1786369622.1999266,-1.537,5.801,6.488,-1.88,0.404,0.352,61.95,-19.5,66.0,45.0
1786369622.199987,-1.279,5.792,6.491,-1.228,0.36,0.024,61.65,-20.55,66.0,45.0
1786369622.2000139,-1.738,5.763,6.677,-0.77,0.109,0.015,61.8,-21.9,65.1,60.0
1786369622.3973737,-0.953,5.816,6.809,-0.42,-0.539,-0.044,61.65,-23.7,62.25,60.0
1786369622.3975608,-0.579,5.468,6.948,-0.409,-0.491,-0.145,60.15,-22.95,63.45,60.0
1786369622.397584,0.098,4.872,7.436,-0.206,-0.363,-0.172,59.85,-24.75,63.15,68.0
1786369622.6016762,-0.527,8.428,1.322,5.618,-0.548,-0.733,56.4,-5.85,74.4,51.0
1786369622.6017516,-0.249,8.997,0.692,5.779,-0.179,-0.096,55.5,0.3,74.25,51.0
1786369622.6017842,-0.455,9.474,0.551,5.572,0.093,0.314,56.55,4.5,73.5,51.0
1786369622.8066258,-1.329,9.464,-2.045,-0.15,0.028,-0.062,63.9,26.1,62.7,613.0
1786369622.8066962,-1.173,9.572,-1.932,-0.222,0.054,-0.062,62.7,29.1,64.2,613.0
1786369622.806724,-1.204,9.852,-1.53,-0.596,0.138,-0.037,62.85,27.0,65.1,613.0
1786369623.0146022,-1.279,10.235,-0.991,-1.786,0.209,0.054,62.85,25.05,66.9,613.0
1786369623.0146546,-1.496,11.021,-0.151,-2.83,0.12,0.191,63.6,24.75,67.65,640.0
1786369623.0146773,-1.288,10.92,-0.034,-3.883,-0.095,0.428,63.6,20.85,69.45,640.0
1786369623.218369,0.132,9.301,2.684,-5.637,-0.391,1.464,59.55,3.45,79.35,614.0
1786369623.2184427,0.39,4.527,7.137,-0.427,-0.161,0.11,65.1,-20.1,64.35,53.0
1786369623.2185378,0.723,4.448,7.089,0.048,-0.129,-0.018,65.1,-21.9,61.8,53.0
1786369623.4233954,0.936,4.93,6.946,0.27,0.029,-0.048,65.7,-22.95,61.2,53.0
1786369623.4234335,1.008,5.033,7.094,0.321,0.251,-0.051,64.05,-21.45,61.95,58.0
1786369623.4234505,0.579,5.15,7.178,0.31,0.3,-0.051,64.05,-20.85,62.1,58.0
1786369623.6265438,0.558,4.82,6.436,1.706,-0.134,-0.71,61.95,-19.05,64.5,25.0
1786369623.6266184,0.491,5.612,6.091,2.424,0.081,-0.735,63.9,-17.85,64.2,25.0
1786369623.62665,-1.049,10.403,1.056,1.631,-0.19,-0.113,56.25,13.05,73.95,707.0
1786369623.8314934,-0.852,10.367,0.857,1.061,-0.227,-0.117,55.05,14.55,71.25,707.0
1786369623.831542,-0.891,10.197,0.627,0.577,-0.211,-0.051,57.75,13.8,71.25,707.0
1786369623.8315632,-0.682,10.137,0.45,0.281,-0.162,-0.045,56.4,15.15,71.1,749.0
1786369624.0351744,-1.207,9.792,-0.414,0.102,0.203,-0.144,57.45,17.1,68.85,749.0
1786369624.035236,-1.25,9.505,-0.601,0.258,0.171,-0.131,58.5,17.7,70.65,770.0
1786369624.035263,-1.465,9.546,-0.584,0.353,0.122,-0.082,58.95,17.1,70.05,770.0
1786369624.246248,-0.654,11.468,0.972,-4.247,0.09,0.404,57.9,16.35,75.6,770.0
1786369624.2462995,-1.046,10.803,1.374,-5.576,-0.31,0.935,58.95,14.4,77.4,770.0
1786369624.2463212,-1.001,11.425,1.884,-6.006,-0.577,1.318,60.6,10.05,78.0,642.0
1786369624.4411252,0.828,5.282,6.919,0.394,0.073,0.077,62.85,-19.65,65.1,44.0
1786369624.4458508,0.759,5.289,6.84,0.6,-0.3,-0.002,61.95,-18.75,64.2,39.0
1786369624.6465364,0.91,5.528,6.728,0.732,-0.307,-0.078,59.7,-18.75,65.25,39.0
1786369624.6513226,1.161,5.947,6.646,0.679,-0.239,-0.093,58.8,-18.45,66.6,39.0
1786369624.6513782,0.886,6.196,6.816,0.556,-0.211,-0.056,59.85,-19.65,64.65,39.0
1786369624.854608,0.984,6.44,6.936,0.843,-0.497,0.017,56.55,-18.15,67.95,48.0
1786369624.854697,1.542,7.082,6.996,0.282,-0.477,-0.111,51.0,-16.5,72.0,46.0
1786369624.85473,1.573,7.151,6.764,0.275,-0.325,-0.076,51.75,-15.75,72.45,46.0
1786369625.0605996,2.037,7.214,6.606,0.044,-0.421,-0.164,50.25,-14.25,72.45,43.0
1786369625.0606463,2.32,7.324,6.493,-0.015,-0.362,-0.124,49.5,-13.5,73.5,43.0
1786369625.0606706,2.48,7.046,6.321,-0.15,-0.337,-0.133,49.5,-13.5,73.95,43.0
1786369625.2644532,2.459,6.701,5.772,-0.214,0.205,0.074,47.85,-16.8,71.55,50.0
1786369625.2645466,2.84,8.27,5.897,-0.128,0.001,0.001,48.3,-15.0,69.9,50.0
1786369625.2645695,1.793,8.212,5.753,-0.193,-0.172,-0.206,48.6,-15.9,71.55,50.0
1786369625.4748652,0.699,6.421,6.797,-0.387,0.139,0.025,55.5,-35.55,71.7,39.0
1786369625.474912,1.168,6.606,7.068,-0.326,0.049,-0.135,55.2,-35.7,69.3,39.0
1786369625.474933,3.723,5.895,-14.348,0.987,-2.18,0.459,56.25,-36.6,71.25,39.0
1786369625.6735995,2.193,5.909,6.754,-0.163,-0.901,0.31,54.15,-33.75,73.65,53.0
1786369625.673672,2.495,5.713,6.591,-0.019,-0.642,0.208,51.9,-32.25,74.1,53.0
1786369625.673702,2.686,6.22,6.311,-0.031,-0.278,0.172,51.75,-32.4,71.7,53.0
1786369625.8791463,4.896,4.08,5.109,-0.426,0.372,0.122,53.55,-31.95,74.55,51.0
1786369625.8792005,2.995,6.946,6.812,-0.263,0.149,0.135,53.1,-31.8,74.85,51.0
1786369625.8906493,3.081,6.251,6.596,-0.21,0.325,-0.012,53.25,-31.95,74.25,51.0
1786369626.0839584,1.556,6.017,5.334,2.255,-0.074,-1.237,53.7,-29.1,72.9,40.0
1786369626.083991,1.259,4.635,4.946,3.199,0.078,-1.752,50.85,-25.2,70.8,59.0
1786369626.084005,0.249,6.586,4.35,3.965,0.177,-1.691,49.65,-21.45,68.25,59.0
1786369626.288088,-1.707,11.741,0.072,2.597,0.407,-0.737,47.7,16.5,66.15,702.0
1786369626.28817,-0.687,12.155,-0.503,1.439,0.249,-0.712,49.8,20.1,65.4,741.0
1786369626.2882056,-1.425,11.48,-0.366,0.611,0.101,-0.734,50.85,21.45,64.5,741.0
1786369626.4909256,-0.668,11.298,1.219,-5.017,-0.028,1.079,53.7,7.5,70.05,756.0
1786369626.5032563,-1.046,10.506,1.578,-5.736,-0.052,1.539,54.0,1.5,72.75,698.0
1786369626.5033393,0.11,10.671,1.64,-6.06,-0.132,1.754,54.0,-5.7,74.25,698.0
1786369626.6979673,-0.723,6.531,6.194,-0.516,0.711,0.229,57.9,-29.85,65.55,42.0
1786369626.7041109,-0.553,6.057,6.05,-0.469,0.383,0.176,58.65,-29.85,64.5,45.0
1786369626.70417,-0.589,5.775,6.177,-0.4,-0.062,0.045,59.7,-31.05,65.55,45.0
1786369626.90934,1.408,5.334,5.643,3.223,-0.959,-0.713,54.15,-25.65,68.25,54.0
1786369626.9094014,0.998,5.842,4.583,3.734,-0.8,-0.96,53.1,-20.25,70.8,53.0
1786369626.9094245,0.481,7.575,2.741,4.609,-0.847,-1.149,53.7,-15.6,70.05,53.0
1786369627.108039,0.072,11.353,0.275,3.65,0.074,-0.341,49.05,11.85,69.15,656.0
1786369627.1080916,0.103,11.483,0.266,2.663,-0.084,-0.262,50.1,14.85,68.85,656.0
1786369627.1081157,-0.086,11.293,0.419,1.633,-0.187,-0.195,50.4,17.85,68.55,656.0
1786369627.3123941,-0.242,10.029,-1.041,-0.634,0.119,0.098,53.1,19.05,68.25,727.0
1786369627.3124382,0.079,9.833,-1.008,-0.676,0.15,0.094,53.7,21.0,66.75,727.0
1786369627.3124568,-0.168,9.981,-0.634,-0.86,0.22,0.131,54.45,18.75,69.3,727.0
1786369627.5188742,3.529,7.185,6.785,-3.348,0.325,1.163,50.4,-17.85,74.85,35.0
1786369627.5189445,3.773,5.636,6.85,-2.577,0.972,0.605,49.5,-21.6,70.65,35.0
1786369627.5189762,1.69,3.093,7.118,-1.746,1.316,0.393,50.25,-23.55,71.7,35.0
1786369627.7225382,2.488,4.776,6.476,0.07,-0.46,-0.006,52.8,-27.75,67.2,67.0
1786369627.7226214,2.696,4.798,6.404,0.301,-0.333,-0.091,53.4,-27.9,66.3,67.0
1786369627.722652,2.602,4.729,6.421,0.628,-0.159,-0.263,52.05,-27.45,66.15,67.0
1786369627.9285705,0.816,9.622,0.673,5.39,0.304,-1.013,51.75,-3.75,72.45,210.0
1786369627.928626,0.836,9.072,0.469,5.166,0.454,-0.893,51.15,4.35,71.55,210.0
1786369627.9286492,-0.163,10.903,-0.072,4.704,0.543,-0.892,51.75,5.4,72.0,210.0
1786369628.1327875,-0.069,10.513,-0.429,-0.19,0.059,-0.074,53.1,19.5,65.55,799.0
1786369628.132843,-0.369,10.235,-0.797,-0.125,0.16,-0.25,54.45,19.05,67.05,799.0
1786369628.1328685,-0.721,9.967,-0.958,-0.037,0.246,-0.362,53.4,20.25,66.75,799.0
1786369628.3364625,-0.682,10.556,0.309,-1.146,0.228,-0.034,56.7,18.3,67.5,799.0
1786369628.3365781,-0.843,11.004,0.871,-2.145,0.175,0.143,57.3,16.95,68.4,799.0
1786369628.3366096,-0.555,11.624,1.539,-3.343,0.139,0.25,58.05,13.5,70.65,799.0
1786369628.5407252,0.151,4.561,7.513,-2.873,1.116,0.177,58.8,-29.7,63.9,65.0
1786369628.5407803,-0.979,4.319,7.12,-1.86,1.147,0.018,61.95,-30.6,61.5,65.0
1786369628.5408056,-0.517,4.872,6.795,-1.195,1.071,-0.128,61.8,-31.65,62.1,65.0
1786369628.7461352,-0.077,4.499,6.704,0.701,-0.569,-0.471,58.5,-33.15,61.8,54.0
1786369628.7461886,0.079,4.492,6.22,1.264,-0.686,-0.533,59.4,-31.8,62.7,59.0
1786369628.7462118,0.591,5.291,5.851,1.7,-0.641,-0.567,56.55,-33.15,62.55,59.0
1786369628.950406,-0.316,8.698,3.127,3.557,-1.086,-1.116,46.35,-15.15,74.1,72.0
1786369628.9504719,-0.654,8.825,2.725,3.701,-1.123,-1.266,48.75,-12.75,75.0,99.0
1786369628.9505394,-0.759,9.464,2.322,3.755,-0.98,-1.257,47.1,-8.25,75.6,99.0
1786369629.155571,-1.618,10.882,0.649,0.564,-0.394,-0.114,41.55,17.55,72.6,772.0
1786369629.1556413,-1.736,10.846,0.63,0.527,-0.361,-0.08,41.7,16.5,71.25,772.0
1786369629.155672,-1.779,10.731,0.462,0.443,-0.289,-0.027,41.7,18.45,72.0,772.0
1786369629.3660562,-2.052,10.101,-0.244,0.011,-0.082,-0.193,41.7,20.1,69.15,807.0
1786369629.3661299,-1.966,10.159,-0.093,-0.169,-0.027,-0.107,41.55,19.8,70.8,807.0
1786369629.3661625,-2.461,10.633,0.283,-0.775,-0.076,-0.128,42.0,19.2,71.7,807.0
1786369629.5652924,-2.344,7.123,6.009,-5.417,1.348,1.148,39.45,-20.4,75.3,64.0
1786369629.5653622,-3.139,8.028,6.464,-3.684,0.463,0.966,42.15,-24.45,74.4,64.0
1786369629.5653937,-1.657,6.402,6.481,-2.422,0.312,0.281,46.2,-23.55,71.7,64.0
1786369629.770389,-1.822,5.409,5.586,0.158,-0.603,-0.127,43.35,-28.8,67.5,44.0
1786369629.7704666,-1.597,5.186,5.614,0.626,-0.778,-0.118,42.0,-26.55,67.2,44.0
1786369629.7705345,-1.31,5.016,5.655,1.278,-0.896,-0.161,40.95,-27.75,66.15,44.0
1786369629.9818263,-0.972,9.189,1.094,4.838,-0.822,-0.411,38.55,-5.85,73.65,74.0
1786369629.9819012,-1.219,9.428,0.929,4.704,-0.571,-0.275,34.35,1.65,72.9,74.0
1786369629.981932,-1.039,10.051,0.843,4.297,-0.41,-0.268,34.35,4.8,73.35,74.0
1786369630.1857145,-1.46,10.898,-0.163,0.104,0.161,-0.637,34.8,20.25,66.3,801.0
1786369630.185766,-1.465,10.532,-0.266,-0.073,0.213,-0.477,34.95,20.4,66.9,801.0
1786369630.1857905,-1.532,10.403,-0.443,-0.198,0.114,-0.337,35.1,20.25,66.3,801.0
1786369630.389958,-1.664,9.352,-0.972,-0.114,-0.044,0.102,35.7,20.85,66.6,798.0
1786369630.3900197,-1.741,9.407,-0.855,-0.145,0.052,0.089,37.8,20.25,67.8,798.0
1786369630.3900456,-1.908,9.517,-0.821,-0.271,0.131,0.062,37.35,19.8,67.05,798.0
1786369630.5900707,-0.862,9.718,2.83,-5.586,-0.175,1.609,35.7,0.3,76.5,674.0
1786369630.5901392,-0.108,8.89,3.701,-5.573,0.043,1.778,35.1,-2.1,75.9,674.0
1786369630.5901685,0.737,8.624,4.314,-6.002,1.274,1.68,35.55,-8.7,75.6,674.0
1786369630.80125,-0.943,5.99,6.124,0.36,-0.494,-0.017,39.3,-25.65,64.5,65.0
1786369630.8013265,-0.534,6.074,6.079,0.515,-0.446,-0.086,37.95,-23.85,65.85,81.0
1786369630.8013637,-0.182,5.883,5.981,0.786,-0.295,-0.195,37.2,-25.05,67.95,81.0
1786369630.998329,-1.52,7.175,2.976,3.646,-0.636,-0.918,37.8,-13.2,69.6,57.0
1786369630.998396,-1.528,7.676,2.093,4.322,-0.846,-1.024,38.25,-12.3,70.2,57.0
1786369630.9984252,-0.929,7.743,1.547,5.031,-0.89,-0.81,38.1,-6.3,71.55,57.0
1786369631.1992104,-0.484,10.781,-0.577,0.209,0.228,-0.567,41.7,26.25,67.2,809.0
1786369631.2103856,-0.543,10.475,-0.773,0.109,0.365,-0.481,41.55,26.1,67.05,809.0
1786369631.2104287,-1.267,10.336,-0.967,-0.038,0.44,-0.338,42.9,26.85,67.05,813.0
1786369631.4076672,-1.35,9.74,-0.45,-1.92,0.316,0.023,44.25,20.1,69.9,805.0
1786369631.4125307,-1.147,9.404,-0.661,-1.954,0.357,0.09,44.7,17.4,70.65,805.0
1786369631.4125712,-1.396,9.359,-0.453,-1.441,0.297,0.095,45.75,18.15,70.95,787.0
1786369631.6132631,-1.939,9.51,-0.8,0.954,0.107,-0.069,47.85,18.75,68.25,759.0
1786369631.6133122,-1.796,9.388,-0.869,0.838,0.021,-0.102,47.25,19.65,69.9,759.0
1786369631.6133358,-1.58,9.404,-0.673,0.633,0.056,-0.123,46.2,20.4,69.9,774.0
1786369631.8176057,-1.717,9.62,2.78,-6.002,-0.107,1.254,48.15,-0.45,79.2,745.0
1786369631.817678,-1.537,8.701,3.084,-5.861,-0.161,1.554,48.0,-4.95,78.0,745.0
1786369631.817708,-3.84,2.152,6.323,-5.327,-0.119,1.371,45.45,-12.3,75.75,59.0
1786369632.0223193,-1.353,6.335,6.709,0.192,-0.094,-0.147,46.95,-21.9,67.2,65.0
1786369632.022393,-0.955,6.0,6.718,-0.013,-0.397,-0.082,47.25,-23.1,66.9,65.0
1786369632.0224292,-0.503,5.686,6.962,-0.052,-0.538,-0.074,46.5,-23.55,66.6,63.0
1786369632.2276495,-0.577,5.823,6.759,1.167,-0.22,-0.207,44.4,-23.25,67.5,63.0
1786369632.2276964,-0.548,5.859,6.29,1.881,-0.212,-0.448,43.5,-21.6,69.45,63.0
1786369632.2277162,-0.412,6.062,5.825,2.7,-0.218,-0.791,43.95,-19.65,67.95,63.0
1786369632.4378865,-1.252,10.549,1.279,0.83,0.147,-0.602,34.8,13.65,71.1,775.0
1786369632.4379652,-1.563,10.491,0.757,0.478,0.3,-0.557,36.3,15.15,70.05,775.0
1786369632.4379997,-1.772,10.264,0.488,0.276,0.342,-0.631,36.6,16.35,70.8,775.0
1786369632.8417594,-2.346,11.43,1.3,-4.537,-0.188,0.571,39.6,10.95,77.4,746.0
1786369632.8418124,-1.448,10.843,1.614,-5.504,-0.125,0.449,38.85,4.8,77.4,746.0
1786369632.841838,-1.008,10.218,2.409,-6.016,0.057,0.565,37.35,-0.9,78.15,746.0
1786369633.0461228,-1.41,5.042,6.658,-0.426,0.272,0.116,41.1,-27.15,62.7,50.0
1786369633.0461636,-1.528,5.557,6.414,0.181,0.366,0.038,43.35,-27.9,63.45,50.0
1786369633.0461802,-1.817,5.789,6.213,0.125,0.262,-0.093,41.25,-26.25,63.15,50.0
1786369633.2511554,-0.838,5.21,6.943,0.307,-0.08,-0.018,40.05,-27.6,64.5,49.0
1786369633.251231,-1.118,5.464,7.044,0.335,0.006,-0.009,40.05,-27.15,65.55,58.0
1786369633.2512667,-1.264,5.409,7.032,0.422,0.015,0.035,39.0,-27.75,65.1,58.0
1786369633.4557815,-1.539,8.243,3.136,4.503,-1.082,-0.61,37.35,-12.45,74.4,76.0
1786369633.4558516,-1.432,8.741,2.641,4.761,-1.18,-0.452,36.3,-6.3,75.15,103.0
1786369633.4558787,-1.08,9.227,1.879,4.765,-0.99,-0.184,37.8,-2.4,73.65,103.0
1786369633.660775,-0.192,10.621,0.33,0.249,-0.054,-0.051,34.2,18.15,69.9,773.0
1786369633.6608298,-0.141,10.475,0.232,0.019,0.088,-0.11,33.9,18.45,69.9,798.0
1786369633.660853,-0.278,10.274,-0.014,-0.097,0.23,-0.105,35.55,17.85,70.05,798.0
1786369633.8659065,-0.891,9.579,-0.792,-0.055,-0.001,0.011,36.6,19.5,69.6,791.0
1786369633.865988,-0.819,9.476,-0.737,0.004,0.041,0.012,38.25,18.15,67.65,791.0
1786369633.8660219,-0.745,9.4,-0.69,-0.015,0.086,0.028,37.5,19.65,67.2,774.0
1786369634.0714529,0.797,9.871,3.421,-5.745,0.76,0.575,39.3,0.9,76.95,172.0
1786369634.0715556,-0.215,8.49,4.334,-5.564,1.041,0.79,37.05,-5.85,76.35,172.0
1786369634.0715888,0.062,5.27,5.581,-4.943,1.434,0.51,35.7,-8.1,75.75,172.0
1786369634.2755563,-0.986,5.966,6.469,-0.188,-0.22,0.04,42.9,-24.45,64.2,57.0
1786369634.2756152,-0.828,5.741,6.553,-0.235,-0.232,0.044,42.6,-24.45,65.25,57.0
1786369634.2756405,-0.754,5.581,6.721,-0.179,-0.22,-0.032,43.5,-25.05,64.65,57.0
1786369634.4803822,-1.02,5.504,6.476,2.163,-0.306,-0.445,39.75,-21.6,66.9,74.0
1786369634.480431,-1.02,5.796,5.543,3.081,-0.395,-0.705,40.5,-19.2,69.15,74.0
1786369634.4804523,-1.839,5.741,2.667,4.005,-0.64,-0.956,40.35,-17.85,70.05,74.0
1786369634.6863575,-0.548,10.728,0.769,3.073,-0.482,0.161,37.35,17.85,70.05,759.0
1786369634.686425,-0.271,11.169,0.668,2.138,-0.271,0.11,35.1,19.05,70.05,759.0
1786369634.6864555,-0.366,10.886,0.311,0.877,-0.154,-0.167,37.8,20.25,69.3,759.0
1786369634.8902423,-1.714,9.457,-1.446,-0.189,0.145,-0.108,42.0,21.15,66.9,784.0
1786369634.8902938,-1.755,9.412,-1.413,-0.223,0.069,0.016,43.5,22.35,68.4,784.0
1786369634.8903155,-1.779,9.34,-1.384,-0.295,-0.02,0.077,43.35,22.2,67.5,784.0
1786369635.0950675,-1.228,10.561,0.907,-3.444,0.141,0.097,43.2,16.2,73.2,762.0
1786369635.095118,-1.027,10.271,1.185,-3.865,0.145,0.191,43.65,11.4,74.4,762.0
1786369635.0951395,-1.348,10.285,1.628,-4.158,0.181,0.231,41.25,8.1,75.0,762.0
1786369635.2994356,-1.403,5.047,6.812,-2.897,0.518,0.294,41.55,-21.75,67.05,66.0
1786369635.2995398,-0.876,4.958,6.984,-2.056,0.567,0.134,42.0,-22.8,66.15,66.0
1786369635.2995656,-0.869,5.255,6.874,-1.228,0.668,0.073,43.35,-24.45,64.2,66.0
1786369635.5048988,-0.91,5.143,6.601,0.199,-0.473,0.018,44.4,-26.4,63.0,60.0
1786369635.504967,-0.891,5.423,6.558,0.318,-0.376,-0.01,43.35,-27.9,63.45,51.0
1786369635.5049953,-0.84,5.454,6.627,0.397,-0.27,-0.029,42.9,-25.65,62.7,51.0
1786369635.7085974,0.134,9.21,2.332,3.541,-0.401,0.369,37.95,1.8,75.75,66.0
1786369635.7086651,-0.28,9.725,1.927,3.282,-0.404,0.361,37.8,4.8,73.65,66.0
1786369635.7086859,-0.687,10.427,1.463,2.87,-0.511,0.178,35.85,9.45,73.65,743.0
1786369635.914245,-0.158,10.13,0.086,-0.195,0.163,-0.209,38.85,16.8,68.85,784.0
1786369635.9143052,-0.242,9.766,-0.165,-0.139,0.219,-0.135,38.25,17.4,70.65,784.0
1786369635.9143312,-0.606,9.708,-0.261,-0.047,0.205,0.011,38.1,17.85,69.3,784.0
1786369636.118639,-0.247,10.738,1.506,-2.437,0.132,0.362,36.75,14.25,72.75,782.0
1786369636.118712,-0.053,10.697,1.571,-3.5,0.074,0.399,38.1,14.85,73.35,782.0
1786369636.1187441,0.007,10.23,1.633,-4.262,0.062,0.474,36.45,6.45,76.05,758.0
1786369636.3237603,-1.044,5.839,6.563,-2.351,1.371,0.214,46.5,-21.15,67.65,38.0
1786369636.3240108,-0.939,5.327,6.728,-1.692,1.009,0.181,45.45,-23.55,66.15,38.0
1786369636.3240414,-1.034,5.26,6.723,-0.684,0.458,0.069,46.2,-24.3,65.1,55.0
1786369636.527922,-0.749,5.262,6.687,0.094,-0.138,-0.088,46.35,-25.65,63.75,49.0
1786369636.5279725,-0.761,5.289,6.831,0.177,-0.239,-0.092,46.2,-25.05,64.65,49.0
1786369636.5279937,-0.52,5.567,6.816,0.178,-0.241,-0.112,45.15,-23.7,65.25,49.0
1786369636.7369962,-1.001,6.594,5.689,3.434,-0.5,-0.997,39.0,-18.9,71.7,72.0
1786369636.7370784,-1.64,4.879,4.741,3.992,-0.419,-1.091,38.1,-17.85,73.35,72.0
1786369636.73711,-1.403,7.805,3.282,4.658,-0.586,-1.158,38.7,-15.0,72.0,72.0
1786369636.938344,-1.274,11.011,-0.019,1.908,-0.02,-0.29,34.95,21.15,68.4,750.0
1786369636.9384146,-1.221,10.901,-0.505,1.074,0.008,-0.336,35.85,21.75,69.3,750.0
1786369636.938441,-1.109,10.479,-0.661,0.624,0.123,-0.483,35.85,22.2,66.3,750.0
1786369637.1422095,-2.387,9.471,-2.231,0.045,0.033,-0.023,42.15,26.85,63.0,778.0
1786369637.1422515,-2.306,9.543,-2.272,-0.031,-0.055,0.077,43.95,25.8,63.15,778.0
1786369637.1422691,-2.176,9.249,-2.172,-0.118,-0.094,0.151,42.9,27.15,64.2,778.0
1786369637.3472545,-1.094,9.244,2.753,-6.097,-0.133,1.783,37.05,-4.35,77.7,742.0
1786369637.3472967,-4.049,5.507,1.235,-6.734,0.43,2.482,34.65,-11.55,75.0,49.0
1786369637.3473125,-0.876,9.007,5.526,-4.456,0.216,1.874,37.8,-16.8,72.3,49.0
1786369637.55223,-0.668,6.254,6.282,-0.949,1.196,0.144,43.95,-21.9,66.15,63.0
1786369637.5523028,-1.068,5.856,6.596,-0.59,0.836,0.07,45.45,-23.55,65.1,63.0
1786369637.5523336,-1.544,5.844,6.706,-0.237,0.398,0.011,46.2,-24.75,62.85,63.0
1786369637.762804,-0.512,5.124,6.594,1.27,-0.466,-0.675,44.1,-23.7,63.0,52.0
1786369637.7628539,-0.081,5.183,6.342,2.004,-0.358,-0.786,43.35,-21.75,65.25,84.0
1786369637.7628767,0.17,6.352,5.349,2.858,-0.409,-0.74,41.1,-21.45,67.5,84.0
1786369637.9615963,-1.132,6.342,4.743,3.707,-0.651,-0.633,40.95,-18.15,67.2,84.0
1786369637.9616692,-2.684,5.906,3.139,4.322,-0.889,-1.008,39.6,-14.85,71.1,84.0
1786369637.9616942,-1.216,8.298,2.442,4.859,-1.151,-0.788,37.5,-11.1,72.0,84.0
1786369638.1721427,-1.068,10.216,-0.867,0.172,0.317,-0.28,38.55,22.2,66.75,787.0
1786369638.1722162,-1.295,10.412,-0.749,-0.106,0.212,-0.158,39.3,21.0,67.5,787.0
1786369638.1722476,-1.156,10.415,-0.57,-0.481,0.077,-0.049,38.85,21.0,67.8,803.0
1786369638.3769302,0.725,9.787,3.632,-5.365,0.469,1.114,37.95,-1.5,75.75,749.0
1786369638.3769772,-0.251,9.268,4.3,-5.956,0.85,1.408,37.5,-6.15,76.5,749.0
1786369638.3769975,3.577,13.448,3.582,-5.599,1.091,1.078,36.6,-13.2,73.65,52.0
1786369638.5766652,-1.322,4.695,6.771,-0.352,0.138,-0.08,45.9,-28.35,60.45,45.0
1786369638.576717,-0.97,5.045,6.598,-0.289,-0.074,-0.077,44.7,-28.5,60.3,45.0
1786369638.5767386,-0.797,4.654,7.003,-0.339,-0.241,-0.129,46.35,-28.35,58.65,45.0
1786369638.7812092,-0.453,4.87,7.707,0.538,-0.153,-0.123,43.5,-28.5,60.6,49.0
1786369638.7812598,-0.292,4.954,7.709,0.757,-0.094,-0.222,42.45,-28.5,61.8,49.0
1786369638.7812815,-0.371,4.946,7.714,1.116,-0.08,-0.367,40.5,-25.8,61.35,56.0
1786369638.9860108,-0.991,10.209,0.876,4.222,0.109,0.076,33.45,10.05,69.9,732.0
1786369638.9860804,-1.056,10.599,1.147,3.278,-0.085,-0.132,32.7,13.05,71.7,732.0
1786369638.9861124,-1.097,11.174,0.778,2.29,-0.265,-0.29,31.05,14.85,68.85,732.0
1786369639.1901507,-2.073,9.998,-1.255,-0.017,0.149,-0.282,37.5,24.75,65.4,799.0
1786369639.1902213,-1.882,9.706,-1.425,-0.079,0.031,-0.178,37.05,25.2,66.75,799.0
1786369639.1902502,-1.788,9.443,-1.432,-0.083,-0.045,-0.051,39.45,24.3,66.6,799.0
1786369639.3953946,-1.051,10.518,1.425,-4.58,0.101,0.466,37.2,13.8,71.7,747.0
1786369639.3954453,-0.96,10.704,1.532,-5.276,0.001,0.438,37.05,7.8,74.1,747.0
1786369639.3954687,-1.137,10.616,2.045,-5.843,-0.092,0.323,34.8,2.4,75.15,747.0
1786369639.5997612,-2.581,5.181,6.642,-0.929,0.75,-0.082,37.5,-28.5,62.1,56.0
1786369639.5998342,-2.818,4.683,6.742,-0.465,0.247,-0.182,37.5,-28.5,61.35,56.0
1786369639.5998662,-2.246,5.306,6.673,-0.132,-0.391,-0.035,39.6,-30.6,61.2,56.0
1786369639.8044116,-1.255,5.171,7.575,0.027,0.053,-0.02,37.35,-29.1,60.75,60.0
1786369639.8044734,-1.362,4.968,7.621,0.091,-0.067,-0.002,36.75,-29.25,61.35,60.0
1786369639.8045287,-1.226,4.963,7.523,0.208,-0.126,0.015,38.55,-28.8,61.95,60.0
1786369640.0094419,-1.781,8.571,2.1,5.978,-1.183,-0.645,36.0,-13.8,70.95,99.0
1786369640.0095143,-1.01,8.959,1.516,6.094,-0.831,-0.184,35.55,-4.8,69.6,99.0
1786369640.0095375,-0.395,9.579,0.955,5.792,-0.432,0.427,33.9,-1.05,71.25,99.0
1786369640.21535,-0.151,11.349,-0.299,0.077,0.217,-0.686,31.2,21.15,66.6,753.0
1786369640.2154002,-0.247,10.858,-0.606,-0.11,0.393,-0.818,32.7,22.35,66.6,787.0
1786369640.2154224,-0.666,10.364,-0.989,-0.11,0.626,-0.757,35.1,22.2,66.75,787.0
1786369640.420094,-1.439,9.536,-1.07,-0.751,-0.084,0.208,38.85,22.2,68.85,789.0
1786369640.4201548,-1.362,10.008,-0.532,-0.999,0.032,0.342,40.05,22.5,68.25,789.0
1786369640.4201827,-1.64,10.621,0.237,-1.794,0.13,0.408,39.75,20.1,69.45,771.0
1786369640.623676,-1.034,5.547,6.582,-1.715,0.561,0.407,40.8,-27.15,64.2,75.0
1786369640.6237452,-1.199,5.684,6.651,-1.151,0.449,0.287,40.95,-28.5,62.1,75.0
1786369640.6237738,-1.053,5.049,6.8,-0.743,0.153,0.097,43.2,-29.25,61.05,75.0
1786369640.8285086,-0.424,4.855,7.654,0.168,0.086,-0.059,40.5,-31.95,60.3,43.0
1786369640.8285744,-0.414,4.714,7.707,0.2,-0.004,-0.085,40.05,-32.55,59.7,43.0
1786369640.8286004,-0.33,4.736,7.673,0.284,-0.088,-0.056,40.95,-32.85,59.1,43.0
1786369641.04054,-1.12,9.017,1.724,6.444,-0.751,-1.465,35.4,-10.8,70.95,42.0
1786369641.04059,-0.883,9.632,1.08,6.597,-0.208,-0.886,35.4,-3.45,70.65,42.0
1786369641.040611,-0.934,9.799,0.407,6.207,0.165,-0.2,35.1,0.9,71.55,42.0
1786369641.2382624,-0.462,11.042,-0.335,0.221,-0.026,-0.377,35.4,21.15,67.95,788.0
1786369641.238317,-0.407,10.81,-0.57,0.171,0.121,-0.428,37.2,22.8,66.9,788.0
1786369641.2383397,-0.709,10.293,-0.881,0.216,0.282,-0.452,37.95,21.15,66.15,788.0
1786369641.4441383,-1.913,9.246,-1.623,-0.177,-0.096,0.084,41.1,26.1,66.3,788.0
1786369641.4441838,-2.037,9.582,-1.161,-0.516,-0.077,0.139,42.0,23.55,65.4,788.0
1786369641.4442043,-1.961,10.058,-0.381,-1.27,-0.013,0.121,40.2,21.15,66.15,788.0
1786369641.648874,-1.408,-0.115,14.511,-5.282,0.777,1.247,30.3,-14.1,75.6,67.0
1786369641.6489236,1.671,9.728,6.555,-4.755,0.913,1.813,29.55,-14.85,73.35,67.0
1786369641.6489475,0.895,7.705,6.63,-3.668,1.128,1.132,35.1,-21.75,68.55,67.0
1786369641.8545585,-1.209,4.662,7.448,-0.824,-0.44,-0.076,40.8,-31.05,59.4,67.0
1786369641.8546004,-0.747,4.448,7.511,-0.565,-0.5,-0.031,39.75,-32.4,58.5,67.0
1786369641.8546176,-0.184,4.221,7.506,-0.324,-0.436,0.081,38.85,-33.0,57.15,67.0
1786369642.057361,-0.692,4.654,7.7,0.425,-0.124,-0.089,40.2,-30.15,59.1,60.0
1786369642.0574272,-0.651,4.556,7.748,0.739,-0.12,-0.143,41.85,-31.5,59.55,60.0
1786369642.0574574,-0.567,4.592,7.671,1.151,-0.151,-0.211,40.95,-30.15,59.85,60.0
1786369642.2685876,-0.709,10.803,0.663,4.133,0.391,-0.466,29.25,9.0,68.85,579.0
1786369642.268645,-1.183,11.349,0.352,3.362,0.338,-0.603,29.7,13.5,68.4,579.0
1786369642.2686677,-1.592,10.788,0.354,2.511,0.302,-0.533,30.3,17.1,67.05,781.0
1786369642.4675813,-2.332,9.948,-1.896,-0.258,0.134,-0.2,36.6,24.15,63.0,789.0
1786369642.467652,-2.167,9.639,-1.994,-0.416,-0.049,-0.095,37.2,23.85,63.15,789.0
1786369642.4676743,-1.846,9.589,-1.765,-0.541,-0.061,0.113,35.4,22.35,63.6,777.0
1786369642.671867,-1.856,10.525,1.817,-6.335,-0.409,0.703,37.2,0.0,75.3,754.0
1786369642.671921,-1.46,9.74,2.313,-6.588,-0.479,0.907,36.75,-2.25,76.05,754.0
1786369642.6719456,-1.058,9.069,3.179,-6.432,-0.549,1.039,31.95,-10.05,74.25,70.0
1786369642.8775911,-1.951,5.234,6.893,-0.454,0.059,0.04,40.95,-30.15,58.8,49.0
1786369642.8776581,-1.765,5.296,6.886,-0.448,-0.366,-0.021,41.55,-29.85,58.2,49.0
1786369642.8776834,-0.977,4.927,7.128,-0.448,-0.564,-0.128,40.35,-29.1,57.45,45.0
1786369643.0822284,-0.974,4.604,7.697,0.197,-0.085,-0.04,36.0,-29.7,57.3,42.0
1786369643.0822866,-1.001,4.549,7.575,0.408,-0.175,-0.036,38.7,-29.25,60.3,42.0
1786369643.0824704,-0.907,4.544,7.525,0.726,-0.211,-0.069,38.1,-29.1,58.65,42.0
1786369643.2939093,-0.407,9.495,0.783,6.252,-0.948,-0.252,34.2,-2.7,70.65,55.0
1786369643.2939599,0.208,10.087,0.745,5.682,-0.335,0.242,33.3,3.15,70.05,55.0
1786369643.293981,-0.335,9.967,0.318,4.867,-0.333,0.352,32.7,4.95,70.2,55.0
1786369643.4973276,-0.479,10.688,-0.259,-0.147,0.429,-0.5,35.85,20.25,65.25,782.0
1786369643.497379,-1.041,10.477,-0.632,-0.243,0.486,-0.366,35.4,21.15,65.85,782.0
1786369643.4974005,-1.365,10.422,-0.728,-0.358,0.322,-0.228,35.85,20.55,65.25,782.0
1786369643.6961772,-0.682,10.166,2.021,-3.715,-0.042,0.58,36.45,7.65,71.7,737.0
1786369643.696238,-0.563,10.257,2.631,-4.16,0.032,0.606,36.3,-0.15,74.1,737.0
1786369643.6962678,-0.63,10.094,2.983,-4.733,0.061,0.533,36.3,-0.15,74.1,737.0
1786369643.90035,-0.718,4.63,6.996,-0.095,0.098,0.016,33.6,-30.3,57.9,55.0
1786369643.9003894,-0.551,4.63,7.092,0.082,-0.064,-0.174,34.95,-29.7,59.55,51.0
1786369643.9004066,-0.283,4.678,7.233,0.136,-0.104,-0.153,32.1,-29.85,58.2,51.0
1786369644.1049862,-0.412,4.831,7.415,1.117,-0.081,-0.072,32.4,-28.95,59.85,64.0
1786369644.105025,-0.306,5.229,7.056,1.691,-0.132,-0.152,33.3,-26.4,61.2,64.0
1786369644.1050413,-0.177,5.569,6.634,2.414,-0.14,-0.363,32.55,-25.2,61.95,64.0
1786369644.3098648,-0.129,9.586,2.071,4.073,-0.021,-0.138,32.4,-0.75,70.95,55.0
1786369644.3099184,-0.05,10.159,2.148,3.491,0.134,-0.076,31.35,2.4,71.1,734.0
