timestamp,ax,ay,az,gx,gy,gz,mx,my,mz,dist
1786377285.1316454,-1.29,1.654,9.507,-0.034,0.072,-0.006,27.45,-27.0,62.1,2033.0
1786377285.1316605,-1.219,1.63,9.507,-0.039,0.087,-0.02,27.3,-28.35,61.95,2033.0
1786377285.1316676,-1.238,1.528,9.558,-0.054,0.032,-0.032,26.55,-28.8,63.0,2046.0
1786377285.1316748,-1.312,1.65,9.471,-0.053,0.02,-0.025,28.05,-29.1,62.25,2046.0
1786377285.1316807,-1.286,1.621,9.546,-0.053,-0.01,-0.02,26.55,-27.6,60.75,2046.0
1786377285.1316864,-1.159,1.561,9.438,-0.061,0.004,0.0,28.2,-28.5,62.55,2043.0
1786377285.1316926,-1.25,1.561,9.464,-0.059,-0.003,-0.006,25.65,-28.5,60.6,2043.0
1786377285.1317012,-1.283,1.501,9.517,-0.036,-0.009,-0.009,25.95,-29.25,61.8,2043.0
1786377285.1317081,-1.219,1.365,9.634,0.207,-0.024,-0.13,26.55,-26.1,61.2,2070.0
1786377285.1317143,-1.35,1.346,9.67,0.244,-0.05,-0.164,26.55,-27.15,60.45,2070.0
1786377285.1317196,-1.353,1.492,9.56,0.259,-0.079,-0.183,25.2,-26.55,62.85,2070.0
1786377285.131725,-1.271,1.882,9.321,0.059,0.015,-0.161,24.9,-25.5,62.1,2098.0
1786377285.13173,-1.233,1.925,9.309,0.026,0.006,-0.163,24.3,-25.2,63.45,2098.0
1786377285.1317353,-1.271,2.035,9.29,-0.007,-0.004,-0.151,25.65,-25.5,62.85,2098.0
1786377285.1317406,-0.886,1.951,9.464,0.001,-0.052,0.073,24.15,-25.05,64.35,2066.0
1786377285.1317463,-0.807,1.889,9.507,-0.02,-0.024,0.073,25.05,-24.45,63.0,2079.0
1786377285.1317515,-0.876,1.82,9.38,-0.021,0.036,0.095,24.75,-26.1,63.75,2079.0
1786377285.1317565,-1.542,1.985,9.115,-0.045,0.016,0.073,25.05,-25.65,62.25,2051.0
1786377285.1317616,-1.202,1.753,8.801,-0.064,0.001,0.027,24.45,-26.25,62.85,2030.0
1786377285.1317668,-1.238,1.429,8.691,-0.059,0.065,0.004,25.05,-25.2,62.7,2030.0
1786377285.1317718,-1.671,2.279,9.706,0.127,-0.03,-0.105,24.45,-25.8,63.15,1983.0
1786377285.1317768,-1.707,2.464,9.754,0.105,-0.068,-0.121,24.15,-25.8,65.1,1994.0
1786377285.1317818,-1.587,2.619,9.783,0.065,-0.106,-0.151,25.2,-25.05,63.9,1994.0
1786377285.131787,-0.534,2.387,9.309,-0.114,-0.091,-0.015,22.5,-23.7,64.8,1989.0
1786377285.131792,-0.594,2.251,9.254,-0.103,-0.058,0.026,24.0,-24.45,63.0,1984.0
1786377285.1317973,-0.819,2.138,9.139,-0.103,-0.06,0.051,23.1,-24.3,63.15,1984.0
1786377285.1318023,-1.018,1.899,9.036,-0.026,-0.019,-0.032,23.1,-24.75,62.85,2015.0
1786377285.1318073,-1.092,1.887,9.007,0.015,-0.024,-0.049,23.25,-23.7,61.95,2015.0
1786377285.1318126,-0.958,1.99,8.99,0.049,-0.015,-0.057,23.4,-24.3,61.8,1999.0
1786377285.131818,-0.95,2.32,9.486,0.044,0.046,0.005,21.3,-24.9,64.2,2023.0
1786377285.1318228,-1.142,2.152,9.357,0.052,0.022,-0.039,23.1,-23.85,63.15,2052.0
1786377285.1318276,-1.197,2.227,9.507,0.06,-0.008,-0.04,22.35,-21.6,64.65,2052.0
1786377285.131833,-1.149,2.251,9.505,0.061,-0.023,-0.037,23.1,-23.1,65.1,2030.0
1786377285.1318395,-1.274,2.291,9.392,-0.003,-0.075,-0.028,21.9,-21.9,65.4,2037.0
1786377285.1318455,-1.053,2.198,9.378,0.007,-0.081,-0.037,21.6,-22.35,65.1,2037.0
1786377285.1318529,-1.152,2.227,9.27,0.014,-0.074,-0.038,21.6,-23.1,64.65,2037.0
1786377285.13186,-1.03,2.394,9.376,0.035,-0.019,-0.047,23.25,-21.75,65.55,2029.0
1786377285.1318672,-0.917,2.43,9.361,0.031,-0.011,-0.041,21.75,-21.75,64.5,2029.0
1786377285.1318746,-0.929,2.466,9.397,0.029,0.021,-0.031,21.75,-23.25,64.5,2029.0
1786377285.1318815,-1.039,2.397,9.225,-0.043,-0.008,0.0,21.3,-22.5,65.55,2051.0
1786377285.1318886,-0.998,2.416,9.242,-0.036,-0.003,0.004,21.75,-22.2,65.25,2051.0
1786377285.1318958,-1.006,2.38,9.246,-0.033,0.006,0.006,21.6,-21.15,64.65,2051.0
1786377285.131903,-1.051,2.411,9.357,-0.015,-0.004,0.015,22.05,-21.45,65.25,2071.0
1786377285.13191,-1.065,2.351,9.364,-0.015,-0.004,0.016,21.3,-21.75,65.25,2071.0
1786377285.1319175,-0.994,2.344,9.364,-0.014,0.011,0.014,21.9,-21.9,63.9,2071.0
1786377285.1319256,-1.065,2.255,9.225,-0.04,0.033,-0.003,21.3,-22.5,64.5,2083.0
1786377285.1319335,-1.037,2.313,9.297,-0.036,0.024,-0.01,21.75,-22.95,64.2,2083.0
1786377285.1319406,-1.104,2.282,9.254,-0.019,0.016,0.0,21.6,-22.35,65.4,2083.0
1786377285.1319456,-1.039,2.38,9.333,-0.015,0.004,0.008,21.6,-22.35,65.4,2074.0
1786377285.1319506,-1.049,2.413,9.335,-0.011,0.003,0.005,21.3,-22.95,64.8,2074.0
1786377285.1319554,-1.044,2.387,9.299,-0.019,0.004,-0.005,22.35,-21.9,65.1,2074.0
1786377285.1319606,-1.044,2.27,9.311,0.009,-0.013,0.014,23.1,-22.8,63.9,2064.0
1786377285.1319656,-1.075,2.342,9.316,0.005,-0.014,0.002,22.35,-22.8,66.6,2073.0
1786377285.1319706,-1.085,2.375,9.244,-0.03,0.005,0.007,22.35,-23.85,64.35,2084.0
1786377285.1319754,-1.013,2.373,9.206,-0.031,0.013,0.016,21.3,-23.25,65.55,2083.0
1786377285.1319811,-1.025,2.322,9.184,-0.023,0.017,0.006,22.35,-22.35,64.65,2083.0
1786377285.131986,-1.044,2.399,9.337,0.006,0.03,0.019,22.65,-21.15,63.9,2078.0
1786377285.1319911,-1.058,2.342,9.318,-0.01,0.027,0.016,22.05,-22.2,64.8,2078.0
1786377285.131996,-1.041,2.377,9.316,-0.019,0.032,0.021,21.75,-23.25,65.55,2085.0
1786377285.1320007,-1.015,2.421,9.342,-0.007,-0.007,-0.013,21.75,-22.2,66.3,2089.0
1786377285.132006,-0.924,2.409,9.347,-0.003,0.001,-0.023,21.75,-21.45,64.8,2089.0
1786377285.1320126,-0.984,2.406,9.345,0.003,0.002,-0.025,22.05,-22.5,64.5,2089.0
1786377285.1320174,-1.056,2.373,9.287,-0.023,-0.006,-0.024,22.8,-21.75,64.5,2105.0
1786377285.1320226,-1.075,2.354,9.249,-0.029,-0.019,-0.031,20.85,-22.35,63.15,2105.0
1786377285.1320283,-1.039,2.342,9.268,-0.034,-0.005,-0.026,22.05,-23.7,65.55,2105.0
1786377285.1320336,-0.979,2.361,9.268,-0.004,0.01,-0.011,21.3,-21.0,66.3,2088.0
1786377285.1320384,-0.972,2.444,9.345,0.002,-0.003,-0.005,22.05,-23.25,64.8,2088.0
1786377285.1320434,-1.001,2.418,9.359,0.011,-0.026,-0.009,22.05,-22.2,64.2,2088.0
1786377285.1320481,-1.039,2.296,9.311,-0.012,-0.013,-0.007,21.75,-22.2,64.2,2086.0
1786377285.132053,-0.953,2.358,9.251,-0.003,-0.016,-0.014,21.3,-22.5,66.0,2086.0
1786377285.1320581,-1.001,2.404,9.301,-0.001,-0.011,-0.012,20.4,-21.6,65.4,2086.0
1786377285.132063,-0.958,2.466,9.234,-0.03,0.005,-0.001,20.85,-22.35,64.65,2096.0
1786377285.132068,-0.939,2.389,9.179,-0.033,0.018,0.002,21.0,-23.7,63.9,2096.0
1786377285.1320727,-0.934,2.387,9.191,-0.038,0.023,0.003,21.0,-23.7,63.0,2096.0
1786377285.1320775,-0.922,2.456,9.414,-0.031,0.024,0.001,22.5,-22.5,64.2,2100.0
1786377285.132083,-0.962,2.401,9.419,-0.024,0.024,0.002,22.35,-21.9,65.4,2100.0
1786377285.132088,-1.065,2.459,9.409,-0.024,0.011,0.008,22.35,-22.8,65.85,2100.0
1786377285.132093,-0.989,2.368,9.273,-0.028,-0.027,0.014,21.3,-21.45,63.0,2076.0
1786377285.1320977,-0.979,2.38,9.361,-0.022,-0.026,0.012,21.6,-21.9,64.35,2076.0
1786377285.132103,-0.953,2.433,9.292,-0.032,-0.006,0.014,21.0,-22.2,66.0,2076.0
1786377285.1321075,-0.907,2.411,9.1,-0.059,0.017,0.005,22.5,-22.95,64.8,2098.0
1786377285.1321125,-0.809,2.411,9.067,-0.068,0.018,-0.001,21.9,-22.35,63.6,2098.0
1786377285.1321175,-0.812,2.468,9.052,-0.072,0.03,-0.014,22.5,-20.25,64.5,2098.0
1786377285.1321223,-0.869,2.368,9.155,-0.209,0.167,0.047,22.35,-23.85,62.55,2075.0
1786377285.1321273,-0.871,2.251,9.12,-0.201,0.169,0.038,21.75,-24.15,63.75,2075.0
1786377285.1321323,-0.888,2.059,9.148,-0.167,0.187,0.041,21.6,-24.3,63.9,2081.0
1786377285.1321373,-1.518,1.42,9.352,0.037,0.226,0.047,24.3,-24.9,63.75,2031.0
1786377285.1321433,-2.03,1.389,9.632,0.059,0.139,0.047,22.8,-25.2,64.2,2031.0
1786377285.1321483,-2.205,1.477,9.778,0.072,0.017,0.054,22.5,-24.45,64.2,2065.0
1786377285.132153,-1.657,1.403,9.141,-0.116,0.14,0.078,24.45,-28.5,62.55,1992.0
1786377285.132159,-1.652,1.365,9.189,-0.083,0.136,0.074,24.0,-29.55,62.25,1992.0
1786377285.1321638,-1.834,1.417,9.249,-0.048,0.114,0.074,24.3,-29.1,63.0,2031.0
1786377285.132169,-1.827,1.417,9.61,-0.002,0.04,0.005,25.05,-29.85,63.0,2053.0
1786377285.1321738,-1.697,1.348,9.586,-0.015,0.053,-0.008,24.45,-29.25,61.8,2053.0
1786377285.1321785,-1.721,1.312,9.546,-0.031,0.078,-0.013,24.45,-29.25,62.85,2053.0
1786377285.1321836,-1.765,1.547,9.22,-0.018,0.039,0.004,24.9,-28.2,63.15,2098.0
1786377285.132188,-1.738,1.669,9.22,-0.021,0.036,0.0,24.9,-29.7,63.6,2098.0
1786377285.1321929,-1.765,1.635,9.304,-0.024,0.03,-0.014,24.0,-30.3,64.2,2098.0
1786377285.1321976,-1.856,1.724,9.242,-0.015,0.094,-0.043,23.4,-28.2,64.65,2114.0
1786377285.1322021,-1.903,1.645,9.29,-0.003,0.088,-0.042,24.9,-28.2,64.35,2114.0
1786377285.1322384,-1.927,1.678,9.376,0.005,0.074,-0.035,23.85,-28.2,65.4,2114.0
1786377285.1322434,-1.923,1.599,9.378,-0.053,0.069,0.005,23.4,-28.95,62.85,2110.0
1786377285.1322486,-1.944,1.559,9.352,-0.046,0.062,0.005,24.45,-29.7,62.85,2110.0
1786377285.1322534,-1.966,1.437,9.299,-0.036,0.045,0.002,24.15,-29.7,65.4,2110.0
1786377285.1322584,-1.879,1.484,9.359,-0.032,0.026,-0.009,24.0,-29.1,65.25,2105.0
1786377285.132263,-2.016,1.547,9.383,-0.039,0.047,-0.012,24.15,-28.2,63.9,2127.0
1786377285.1322744,-2.112,1.568,9.383,-0.03,0.037,-0.01,24.45,-28.5,65.4,2127.0
1786377285.1322796,-2.023,1.496,9.316,-0.04,0.02,-0.018,24.75,-28.8,64.5,2119.0
1786377285.1322844,-1.956,1.494,9.34,-0.037,0.032,-0.012,23.1,-29.7,63.9,2138.0
1786377285.132289,-1.946,1.559,9.306,-0.026,0.047,-0.012,22.8,-29.55,64.8,2138.0
1786377285.132294,-2.136,1.42,9.297,-0.005,0.024,0.009,26.55,-28.35,63.75,2150.0
1786377285.1322987,-2.222,1.405,9.369,-0.004,0.036,-0.005,25.5,-29.55,65.55,2122.0
1786377285.1323037,-2.162,1.429,9.352,0.013,0.024,-0.005,25.5,-29.55,65.55,2122.0
1786377285.1323085,-2.042,1.398,9.33,-0.07,0.027,0.016,25.2,-29.25,65.1,2138.0
1786377285.132313,-2.112,1.391,9.328,-0.068,0.006,0.024,25.2,-28.2,65.85,2137.0
1786377285.132318,-2.124,1.338,9.05,0.063,-0.029,0.001,24.9,-28.5,62.55,2130.0
1786377285.1323233,-2.14,1.381,9.108,0.069,-0.022,-0.017,24.3,-31.05,64.8,2130.0
1786377285.1323283,-1.98,1.372,9.148,0.088,0.021,-0.027,24.75,-30.6,63.75,2135.0
1786377285.132333,-2.107,1.712,9.632,0.007,-0.01,-0.008,23.25,-27.6,64.2,2145.0
1786377285.1323376,-2.21,1.707,9.594,-0.018,-0.002,0.009,23.4,-28.2,63.9,2145.0
1786377285.1323426,-2.157,1.798,9.56,-0.04,0.005,0.006,25.5,-29.55,64.5,2143.0
1786377285.132347,-2.064,1.434,9.05,0.013,0.018,-0.01,24.15,-28.95,64.35,2134.0
1786377285.132352,-2.133,1.472,9.158,0.023,-0.005,-0.012,25.2,-27.75,64.35,2134.0
1786377285.1323566,-2.138,1.398,9.462,0.016,-0.005,-0.016,24.3,-27.9,63.45,2148.0
1786377285.1323614,-2.069,1.408,9.445,0.004,0.001,-0.026,23.55,-29.55,64.5,2148.0
1786377285.1323667,-2.143,1.377,9.452,0.003,0.012,-0.022,24.75,-28.8,65.55,2148.0
1786377285.1323714,-2.184,1.523,9.313,-0.088,0.007,-0.067,24.15,-30.15,64.35,2177.0
1786377285.1323767,-2.224,1.549,9.22,-0.084,0.007,-0.061,25.95,-28.5,62.85,2177.0
1786377285.1323814,-2.107,1.501,9.222,-0.079,0.011,-0.06,24.45,-29.7,63.6,2177.0
1786377285.1323862,-2.167,1.401,9.222,0.027,-0.004,0.01,23.4,-29.25,64.35,2147.0
1786377285.1323912,-2.253,1.46,9.275,0.025,-0.015,0.023,23.85,-28.2,64.65,2147.0
1786377285.132396,-2.186,1.425,9.378,-0.001,-0.01,0.017,22.35,-28.2,65.1,2147.0
1786377285.1324008,-2.239,1.439,9.337,-0.016,0.019,0.001,24.3,-28.35,63.45,2152.0
1786377285.1324058,-2.162,1.609,9.304,-0.016,-0.001,-0.005,23.85,-28.95,63.15,2152.0
1786377285.1324105,-2.136,1.446,9.404,-0.018,0.017,-0.006,24.15,-28.2,64.35,2152.0
1786377285.1324153,-2.193,1.408,9.397,-0.074,0.01,-0.007,24.15,-29.25,64.35,2154.0
1786377285.13242,-2.227,1.446,9.392,-0.09,0.031,-0.004,23.4,-28.95,63.9,2154.0
1786377285.132425,-2.253,1.437,9.294,-0.095,0.042,-0.01,23.55,-28.8,62.25,2154.0
1786377285.1324298,-2.241,1.393,9.244,0.031,-0.003,0.0,25.65,-28.2,63.9,2163.0
1786377285.1324346,-2.162,1.417,9.282,0.023,0.002,0.008,23.55,-27.9,63.45,2163.0
1786377285.1324396,-2.303,1.348,9.249,-0.039,0.064,0.014,24.9,-29.25,64.35,2156.0
1786377285.1324444,-2.306,1.331,9.268,-0.013,0.066,0.011,24.9,-28.2,64.65,2146.0
1786377285.132449,-2.33,1.156,9.213,0.016,0.02,0.002,25.8,-27.9,64.8,2146.0
1786377285.132454,-2.198,1.669,9.29,-0.131,0.08,-0.006,23.4,-28.95,65.1,2152.0
1786377285.1324584,-2.272,1.539,9.218,-0.106,0.1,0.005,23.55,-29.1,65.25,2152.0
1786377285.1324637,-2.26,1.535,9.117,-0.089,0.07,0.02,24.45,-29.7,64.65,2152.0
1786377285.1324682,-2.294,1.484,9.215,0.144,-0.07,0.053,26.55,-29.55,66.3,2144.0
1786377285.1324732,-2.152,1.499,9.292,0.12,-0.114,0.062,25.2,-29.25,65.1,2144.0
1786377285.132478,-1.951,1.472,9.352,0.089,-0.129,0.07,26.25,-29.1,65.25,2144.0
1786377285.132483,-2.727,1.688,9.589,-0.077,0.005,0.0,26.4,-29.7,63.15,2146.0
1786377285.1324878,-2.552,1.681,9.515,-0.101,0.039,-0.046,25.2,-29.25,63.9,2146.0
1786377285.1324925,-2.421,1.693,9.445,-0.112,0.07,-0.065,26.25,-29.55,63.75,2146.0
1786377285.1324973,-1.686,1.695,8.981,0.02,0.024,0.135,27.15,-29.25,64.35,2149.0
1786377285.1325023,-1.867,1.595,8.988,0.044,0.004,0.175,26.25,-29.25,64.35,2149.0
1786377285.132507,-2.028,1.604,9.122,0.079,0.005,0.197,25.65,-30.45,63.15,2149.0
1786377285.132512,-2.399,1.422,9.191,-0.036,0.126,0.046,26.55,-30.3,65.25,2144.0
1786377285.1325169,-2.624,1.178,9.258,-0.001,0.048,0.026,27.3,-30.3,66.3,2144.0
1786377285.1325216,-2.207,1.724,9.404,-0.074,-0.019,-0.06,26.25,-29.55,64.8,2162.0
1786377285.1325266,-2.119,1.765,9.4,-0.085,-0.025,-0.052,25.65,-28.95,65.4,2162.0
1786377285.1325312,-2.047,1.621,9.357,-0.085,-0.009,-0.046,25.95,-28.2,65.85,2162.0
1786377285.1325362,-2.399,1.793,9.246,0.088,-0.096,0.014,27.75,-30.3,65.55,2144.0
1786377285.132541,-2.44,1.87,9.282,0.077,-0.118,0.009,27.45,-30.45,64.35,2144.0
1786377285.1325457,-2.32,1.867,9.275,0.055,-0.114,0.01,26.55,-29.55,64.8,2144.0
1786377285.1325507,-1.812,1.575,8.95,-0.066,0.09,0.089,26.7,-30.15,63.9,2154.0
1786377285.1325552,-1.901,1.508,8.981,-0.027,0.069,0.095,27.3,-30.6,64.2,2154.0
1786377285.1325607,-1.937,1.413,8.957,0.004,0.056,0.084,27.0,-30.3,63.75,2154.0
1786377285.1325653,-2.033,1.721,9.349,-0.132,-0.026,-0.08,27.3,-29.1,64.2,2157.0
1786377285.1325703,-2.018,1.611,9.203,-0.137,-0.015,-0.071,26.7,-30.45,65.1,2151.0
1786377285.1325753,-2.1,1.532,9.112,-0.111,-0.02,-0.061,27.15,-29.25,63.15,2151.0
1786377285.13258,-2.071,1.846,9.304,-0.039,0.024,-0.104,26.4,-30.15,62.85,2153.0
1786377285.132585,-2.021,1.822,9.222,-0.022,0.052,-0.101,26.4,-30.45,64.65,2153.0
1786377285.1325898,-1.889,1.81,9.131,-0.005,0.086,-0.078,25.95,-30.9,62.85,2145.0
1786377285.132595,-1.271,1.918,8.945,0.456,0.485,0.099,25.8,-27.6,64.2,2161.0
1786377285.1325998,-0.948,2.061,8.878,0.657,0.774,0.17,27.15,-29.7,66.15,2161.0
1786377285.1326046,-0.898,2.028,8.55,0.78,0.974,0.144,27.3,-29.1,67.5,2168.0
1786377285.1326096,-2.437,3.156,8.32,0.524,0.312,0.675,34.05,-29.1,72.9,1858.0
1786377285.1326144,-2.133,3.239,8.076,0.687,0.541,0.706,34.2,-28.2,72.45,1858.0
1786377285.1326199,-2.392,3.443,8.021,0.904,0.763,0.71,35.4,-27.0,73.5,1416.0
1786377285.1326246,-4.884,6.081,6.627,0.702,0.137,1.136,43.2,-23.55,80.85,1009.0
1786377285.1326294,-4.635,6.072,6.756,0.598,-0.004,1.111,44.85,-22.95,81.45,1009.0
1786377285.1326346,-4.46,6.024,6.78,0.483,-0.043,1.017,44.25,-23.1,80.85,1078.0
1786377285.1326394,-3.091,6.057,6.871,0.042,0.25,0.458,46.2,-23.85,80.1,1091.0
1786377285.1326447,-3.239,6.033,6.797,0.062,0.246,0.35,48.6,-21.0,79.65,1091.0
1786377285.1326494,-3.024,6.0,6.634,0.074,0.211,0.27,47.85,-20.25,81.0,1062.0
1786377285.1326547,-1.42,5.823,6.718,1.188,0.666,0.32,50.1,-16.8,81.75,1081.0
1786377285.1326594,-1.781,6.426,5.986,1.446,0.925,0.235,50.85,-16.8,81.75,1081.0
1786377285.132664,-1.678,6.709,5.799,1.626,1.15,0.12,52.35,-14.85,83.25,1081.0
1786377285.132669,-5.301,8.669,3.845,0.487,0.314,-0.103,60.15,-4.35,81.0,259.0
1786377285.132674,-5.1,8.641,3.543,0.31,0.09,-0.018,60.45,-3.15,81.45,259.0
1786377285.1326787,-4.922,8.296,3.589,0.219,-0.102,0.058,60.3,-3.45,80.85,259.0
1786377285.1326838,-2.385,8.509,3.874,-0.391,-0.471,0.19,55.05,-1.8,83.85,221.0
1786377285.1326885,-2.437,8.614,3.974,-0.513,-0.437,0.218,55.2,-2.4,85.5,223.0
1786377285.1326935,-2.519,8.509,4.065,-0.623,-0.508,0.226,55.05,-2.4,85.5,223.0
1786377285.1326985,-1.446,7.542,5.617,-1.49,-0.104,0.018,51.0,-15.45,84.15,251.0
1786377285.1327035,-1.535,7.479,5.753,-1.674,-0.054,0.004,50.1,-15.9,83.7,1083.0
1786377285.1327083,-1.626,7.24,6.029,-1.894,-0.028,0.007,50.4,-18.75,80.7,1083.0
1786377285.1327138,0.448,4.602,7.623,-0.212,-0.722,0.308,44.25,-31.65,71.25,844.0
1786377285.1327188,-0.148,5.346,7.743,-0.03,-0.221,0.027,43.5,-31.65,72.75,844.0
1786377285.1327238,-0.407,5.334,7.982,-0.027,0.239,-0.118,45.15,-31.8,73.65,844.0
1786377285.1327286,-0.299,4.843,8.404,-0.058,0.818,-0.217,45.75,-33.15,73.2,233.0
1786377285.1327488,0.002,4.666,8.344,0.152,1.485,-0.354,47.1,-31.05,71.55,696.0
1786377285.132754,-0.802,4.587,8.025,0.28,2.116,-0.457,47.85,-33.0,72.3,696.0
1786377285.1327593,-5.191,5.224,3.46,1.864,4.073,-0.982,65.55,-27.0,67.95,661.0
1786377285.132764,-4.906,5.052,3.457,1.967,3.753,-0.872,67.8,-25.8,65.4,661.0
1786377285.1327693,-6.436,5.99,2.715,1.606,3.21,-0.788,70.5,-23.25,66.3,661.0
1786377285.132774,-9.041,6.203,0.429,-0.21,0.527,0.198,80.4,-18.9,56.25,661.0
1786377285.1327791,-9.431,6.244,0.577,-0.421,0.05,0.226,81.9,-18.45,55.5,661.0
1786377285.1327841,-9.146,5.816,0.63,-0.38,-0.123,0.201,81.15,-20.1,55.8,661.0
1786377285.132789,-7.705,5.938,1.161,-0.147,-0.063,-0.026,81.75,-18.75,56.4,661.0
1786377285.1327937,-7.925,5.95,1.207,-0.146,-0.139,0.002,82.8,-18.75,54.9,661.0
1786377285.1327984,-7.812,5.986,1.269,-0.12,-0.274,-0.025,80.4,-17.4,55.8,661.0
1786377285.1328034,-6.905,6.086,2.682,-0.697,-2.245,0.773,76.35,-18.15,59.85,661.0
1786377285.1328082,-6.5,6.201,3.163,-0.622,-2.219,0.57,77.1,-20.4,61.05,661.0
1786377285.132813,-6.835,6.563,3.491,-0.689,-2.04,0.614,74.4,-19.65,63.9,661.0
1786377285.132818,-0.646,4.817,7.171,-0.419,-0.913,-0.138,55.05,-25.05,70.65,646.0
1786377285.132823,-0.534,4.8,7.171,-0.297,-0.411,-0.28,52.65,-26.1,71.1,646.0
1786377285.132828,-1.001,4.726,7.18,-0.222,-0.036,-0.355,52.8,-26.55,72.45,646.0
1786377285.132833,-0.886,5.744,7.903,-0.08,-0.308,-0.194,43.35,-29.1,74.1,1395.0
1786377285.1328378,-0.622,5.624,7.807,-0.118,-0.252,-0.194,42.45,-28.95,74.55,1395.0
1786377285.132843,-0.646,5.363,7.705,-0.108,-0.173,-0.185,42.45,-28.95,73.95,1395.0
1786377285.132848,0.333,4.697,7.575,-0.196,-0.677,0.205,39.6,-28.35,72.9,1462.0
1786377285.29481,-0.467,3.469,10.101,-0.112,-0.302,-0.279,-4.05,-17.4,58.5,1858.0
1786377285.2948334,-0.271,3.239,10.099,-0.176,-0.037,-0.227,-5.85,-15.75,57.75,1858.0
1786377285.2948449,-0.716,3.158,10.029,-0.165,0.147,-0.204,-5.7,-15.9,58.65,1858.0
1786377285.5014825,-1.276,2.184,8.899,-0.231,-0.194,0.136,-2.4,-15.6,54.6,2046.0
1786377285.5015078,-1.147,2.083,8.878,-0.139,-0.17,0.139,-4.65,-16.8,53.85,2046.0
1786377285.501519,-0.864,1.923,8.866,-0.059,-0.076,0.163,-2.7,-17.55,52.05,2046.0
1786377285.7053678,0.579,2.26,8.899,-0.561,-0.431,1.211,-1.65,-21.45,52.8,2028.0
1786377285.7055314,1.334,1.999,8.873,-0.6,-0.16,1.35,-0.9,-22.5,51.6,2028.0
1786377285.7055392,1.628,1.779,8.875,-0.618,0.205,1.618,-0.6,-23.1,50.7,2028.0
1786377285.910823,-1.573,1.41,9.421,-0.072,0.753,1.543,8.7,-36.9,51.6,1741.0
1786377285.9108477,-1.832,1.437,9.347,-0.039,0.686,1.539,9.75,-36.9,51.3,1741.0
1786377285.910859,-1.93,1.405,9.34,-0.047,0.557,1.563,10.95,-39.15,51.3,1741.0
1786377286.114162,-2.33,1.686,9.139,-0.036,0.543,1.662,22.35,-45.9,50.7,1806.0
1786377286.1141863,-2.459,1.537,9.364,-0.033,0.469,1.77,24.3,-47.7,52.05,1806.0
1786377286.114197,-2.782,1.978,9.761,-0.067,0.386,1.994,24.9,-47.55,51.75,1806.0
1786377286.3198178,-3.146,0.697,8.89,0.236,0.383,1.167,45.0,-48.3,48.45,105.0
1786377286.3198407,-3.548,0.546,8.768,0.383,0.151,1.045,45.9,-46.2,49.8,105.0
1786377286.3198516,-3.242,0.512,8.873,0.582,-0.111,0.842,46.65,-46.5,50.1,105.0
1786377286.5244076,0.529,4.032,11.03,1.076,-0.5,0.368,48.3,-42.15,59.1,102.0
1786377286.524431,0.895,5.461,10.554,0.41,-0.372,0.063,46.5,-39.75,61.8,102.0
1786377286.7283325,-0.045,1.978,6.644,-1.24,1.128,-0.705,48.6,-42.3,53.85,1870.0
1786377286.7283595,-1.422,1.788,7.029,-0.946,0.872,-0.685,48.0,-43.2,51.75,1870.0
1786377286.7283714,-2.401,1.82,7.506,-0.674,0.529,-0.555,45.9,-43.5,50.55,1870.0
1786377286.9348187,-1.374,1.087,8.882,-0.977,-0.038,-0.318,42.15,-47.1,44.1,1870.0
1786377286.9348443,-1.671,0.773,8.739,-0.813,0.269,-0.158,41.85,-47.7,42.45,1870.0
1786377286.9348552,-2.873,0.637,8.598,-0.525,0.286,-0.01,42.15,-48.45,39.9,1870.0
1786377287.1392505,-0.424,-0.488,9.088,0.795,-0.4,-0.075,42.9,-45.0,46.5,1992.0
1786377287.1392875,-0.443,-0.419,8.94,0.774,-0.409,-0.094,42.45,-45.15,49.2,1992.0
1786377287.1392992,-0.201,-0.151,8.969,0.785,-0.299,-0.057,42.75,-43.95,49.65,1992.0
1786377287.3430743,-0.826,2.37,9.433,0.024,-0.201,0.064,41.7,-44.4,54.0,1996.0
1786377287.3430986,-0.481,2.136,9.479,-0.065,-0.077,0.071,42.45,-43.95,53.25,1996.0
1786377287.3431098,-0.453,2.205,9.357,-0.171,0.047,0.119,43.2,-43.2,54.0,1996.0
1786377287.5481217,-0.443,1.616,9.862,0.027,-0.005,0.136,42.15,-45.0,52.35,1982.0
1786377287.548147,-0.646,1.7,9.974,0.032,0.022,0.092,41.85,-43.8,52.8,1982.0
1786377287.5481582,-0.869,1.602,10.027,0.032,0.019,0.065,41.7,-45.6,52.5,1982.0
1786377287.753031,-0.843,1.961,9.222,-0.134,-0.07,-0.034,42.6,-45.0,52.05,1973.0
1786377287.7530549,-0.848,1.867,9.196,-0.152,-0.102,-0.049,42.45,-44.4,52.2,1973.0
1786377287.7530658,-0.857,1.966,9.234,-0.136,-0.135,-0.04,40.8,-45.75,54.15,1973.0
1786377287.9577103,-0.359,2.284,9.68,-0.077,-0.008,0.034,42.15,-44.25,52.8,1937.0
1786377287.9577358,-0.369,2.217,9.737,-0.11,0.017,0.055,41.1,-45.0,52.05,1933.0
1786377287.9577467,-0.385,2.188,9.79,-0.112,0.03,0.051,40.95,-45.6,52.2,1933.0
1786377288.162904,-0.498,1.638,9.543,0.049,-0.013,0.03,42.0,-44.4,52.2,1938.0
1786377288.1629286,-0.527,1.705,9.505,0.044,-0.032,0.01,41.85,-45.75,51.6,2002.0
1786377288.1629398,-0.634,1.714,9.522,0.031,-0.033,0.012,42.75,-45.15,52.2,2002.0
1786377288.5715623,-0.323,0.407,9.912,0.093,0.064,0.055,43.95,-44.4,48.15,1997.0
1786377288.5715914,-0.22,0.421,10.116,0.113,-0.029,-0.013,43.35,-43.05,50.55,1997.0
1786377288.5716033,-0.093,0.393,10.432,0.118,-0.057,-0.014,43.2,-42.15,51.45,1968.0
1786377288.7773433,-0.484,0.68,9.692,0.031,-0.098,-0.103,42.75,-42.9,51.75,1987.0
1786377288.7773678,-0.563,0.728,9.637,0.048,-0.17,-0.079,42.0,-43.65,52.5,1987.0
1786377288.7773788,-0.532,0.946,9.541,0.07,-0.268,-0.026,43.35,-43.05,53.1,1989.0
1786377288.9818716,0.045,1.267,9.345,-0.047,0.056,0.006,41.55,-43.5,52.8,1954.0
1786377288.9818962,-0.101,1.396,9.388,-0.118,0.04,0.015,41.7,-43.2,53.7,1954.0
1786377288.9819071,-0.089,1.367,9.424,-0.169,0.031,0.046,42.6,-44.25,53.1,1975.0
1786377289.1860957,-0.079,0.977,9.33,0.034,-0.015,0.011,42.9,-43.05,53.1,1978.0
1786377289.1861203,-0.05,0.986,9.373,0.052,-0.026,-0.004,43.65,-43.5,51.3,1978.0
1786377289.1861312,0.022,1.051,9.347,0.04,-0.019,-0.006,42.9,-43.05,52.8,1954.0
1786377289.397956,-0.105,1.235,9.656,-0.023,0.047,-0.044,41.85,-42.3,51.6,1991.0
1786377289.397981,-0.16,1.247,9.632,-0.016,0.059,-0.032,42.45,-42.45,51.45,1991.0
1786377289.3979917,-0.144,1.298,9.625,-0.012,0.057,-0.039,41.7,-42.9,51.75,1991.0
1786377289.5959115,0.017,1.267,9.728,-0.021,-0.013,0.034,42.9,-44.25,51.6,1996.0
1786377289.5959363,0.06,1.25,9.685,-0.015,0.005,0.032,42.45,-43.65,51.75,1996.0
1786377289.5959475,-0.122,1.329,9.601,0.01,0.01,0.038,42.45,-44.85,52.2,1996.0
1786377289.8024964,-0.146,1.286,9.407,-0.038,0.01,-0.01,43.2,-43.2,53.25,1977.0
1786377289.8025212,-0.136,1.288,9.474,-0.027,-0.005,-0.014,42.45,-44.4,51.45,1977.0
1786377289.8025327,0.01,1.231,9.498,-0.015,-0.021,-0.005,42.15,-43.05,52.8,1977.0
1786377290.005417,-0.043,1.314,9.603,-0.06,-0.014,0.085,43.95,-43.95,51.45,1971.0
1786377290.0054412,-0.053,1.293,9.618,-0.06,-0.04,0.106,42.6,-43.5,51.6,1971.0
1786377290.0054524,-0.043,1.238,9.553,-0.055,-0.042,0.107,41.55,-44.25,52.8,1971.0
1786377290.2164798,-0.022,1.168,9.67,0.019,0.022,0.031,42.9,-41.85,50.85,1974.0
1786377290.216504,0.043,1.221,9.802,0.004,0.02,0.023,43.5,-42.45,51.0,1974.0
1786377290.2165155,0.129,1.298,9.807,-0.013,0.02,0.023,43.35,-43.8,53.1,1974.0
1786377290.4154258,0.249,0.804,9.73,-0.089,0.059,0.085,44.25,-43.65,50.7,1971.0
1786377290.415451,0.079,0.9,9.754,-0.073,0.098,0.102,43.5,-45.15,50.7,1971.0
1786377290.4154763,-0.136,0.809,9.883,-0.07,0.078,0.101,43.5,-43.65,50.4,1971.0
1786377290.6194596,-0.275,1.135,9.888,-0.241,-0.074,0.13,44.1,-43.8,51.3,1955.0
1786377290.6194844,-0.196,1.106,9.878,-0.26,-0.06,0.106,45.75,-42.9,49.65,1933.0
1786377290.6194959,-0.259,1.087,9.732,-0.309,-0.023,0.102,45.6,-43.5,50.85,1933.0
1786377290.825074,-0.275,0.249,9.361,-0.631,0.112,-0.046,45.75,-44.4,46.65,1947.0
1786377290.8250983,-0.316,0.002,9.366,-0.551,0.102,-0.051,44.7,-44.85,44.1,1845.0
1786377290.8251786,-0.431,-0.244,9.376,-0.437,0.03,-0.109,44.7,-45.15,46.35,1845.0
1786377291.0303898,-1.015,1.099,5.701,8.163,1.228,0.711,50.55,-34.35,49.65,1879.0
1786377291.0304143,-1.369,3.393,3.783,8.165,0.571,0.425,51.15,-30.3,55.65,1889.0
1786377291.234131,-2.397,6.943,6.438,-4.541,-0.272,-0.811,51.75,-20.4,64.65,845.0
1786377291.2341542,-2.334,6.536,6.469,-5.016,-0.323,-0.924,50.25,-22.35,63.15,845.0
1786377291.2341654,-1.796,4.561,6.713,-5.343,-0.058,-0.905,47.4,-28.35,61.5,845.0
1786377291.4389753,-1.93,-1.348,9.086,-0.466,0.253,-0.302,43.2,-42.15,39.3,1874.0
1786377291.4389994,-2.696,-1.073,9.431,0.027,-0.016,-0.136,43.35,-41.1,40.2,1874.0
1786377291.4390109,-2.595,-0.517,9.069,0.156,-0.357,-0.021,43.95,-41.7,37.8,1874.0
1786377291.6440246,-1.329,-0.045,9.519,0.054,-0.03,0.002,42.15,-41.55,40.2,1892.0
1786377291.6440494,-1.614,-0.141,9.632,-0.003,-0.023,0.018,42.15,-41.85,40.2,1892.0
1786377291.6440604,-1.662,-0.158,9.653,-0.013,-0.053,0.046,40.8,-42.3,40.95,1892.0
1786377291.8489482,-1.537,-0.4,9.534,0.053,-0.019,0.022,42.0,-41.7,42.6,1880.0
1786377291.848973,-1.451,-0.211,9.503,-0.001,-0.064,-0.028,42.0,-43.65,41.55,1880.0
1786377291.8489842,-1.401,-0.22,9.45,-0.153,-0.051,-0.098,41.55,-43.05,40.95,1880.0
1786377292.0533879,-1.274,0.797,5.88,7.815,0.886,1.567,51.75,-32.4,45.9,1969.0
1786377292.0536065,-1.901,3.12,3.622,8.74,0.214,1.675,50.1,-29.85,52.8,1969.0
1786377292.0536149,-2.83,2.823,3.328,8.502,-0.218,1.367,48.15,-24.9,60.75,1969.0
1786377292.2575083,-1.492,8.813,5.665,-0.261,0.131,-0.362,55.05,-6.45,66.6,1045.0
1786377292.257532,-1.834,8.274,5.555,-0.645,0.188,-0.156,53.7,-6.3,67.05,1045.0
1786377292.257543,-2.55,8.15,5.365,-1.103,-0.038,0.045,52.8,-7.65,67.95,1045.0
1786377292.4624727,-2.375,4.884,7.422,-4.271,0.237,-0.904,48.0,-27.75,59.55,1980.0
1786377292.4624977,-1.815,3.381,8.198,-3.964,0.223,-0.812,46.65,-32.25,57.45,1980.0
1786377292.462509,-2.433,2.885,8.408,-3.646,-0.048,-1.099,48.3,-31.95,53.7,1980.0
1786377292.6678548,-1.975,-1.041,9.414,-0.583,-0.005,-0.122,41.55,-41.55,39.9,1723.0
1786377292.6678803,-2.025,-0.974,9.175,-0.079,-0.014,0.027,40.8,-39.9,40.65,1723.0
1786377292.6678917,-2.164,-0.299,8.77,0.105,-0.093,-0.003,40.05,-42.3,41.25,1723.0
1786377292.8725948,-2.195,-0.158,9.371,-0.044,0.023,-0.021,40.8,-41.55,43.2,1716.0
1786377292.87262,-2.152,-0.51,9.474,-0.045,0.007,-0.009,39.6,-41.55,40.65,1716.0
1786377292.8726313,-2.188,-0.373,9.622,0.041,0.029,0.03,40.8,-41.1,40.95,1850.0
1786377293.077181,-2.021,-0.294,9.412,0.011,0.023,-0.006,39.6,-39.9,41.7,1806.0
1786377293.0772061,-2.131,-1.183,9.469,0.317,0.1,0.079,40.5,-40.5,41.85,1806.0
1786377293.0772176,-1.741,-1.769,9.395,1.078,0.231,0.231,39.45,-41.25,42.3,1876.0
1786377293.281528,-0.22,10.985,5.497,3.088,0.097,0.539,50.4,-11.7,70.05,1804.0
1786377293.2815523,-1.113,13.077,6.895,1.075,0.014,-0.294,51.9,-8.25,70.8,1804.0
1786377293.2815633,-0.455,12.991,7.326,-0.031,-0.109,-0.682,52.8,-5.7,69.15,1055.0
1786377293.4865522,-3.613,7.827,7.13,-4.56,-0.07,-0.615,51.0,-21.9,65.4,1194.0
1786377293.4865766,-2.174,6.488,6.687,-5.251,-0.216,-0.972,46.95,-24.75,63.9,1194.0
1786377293.4865885,-1.721,4.458,7.278,-5.415,-0.02,-1.142,47.1,-30.3,58.95,1194.0
1786377293.6914966,-1.441,-2.212,7.855,-1.072,-0.048,-0.32,42.0,-38.55,33.0,78.0
1786377293.691521,-1.413,-2.82,8.217,-0.644,-0.08,-0.088,40.95,-39.0,32.7,78.0
1786377293.6915326,-1.604,-2.71,8.538,-0.251,-0.28,0.063,41.7,-38.55,32.25,78.0
1786377293.8957076,-2.054,-1.666,9.491,0.103,0.026,0.048,41.55,-39.6,34.35,42.0
1786377293.8957314,-1.808,-2.028,9.833,0.077,-0.023,0.09,41.1,-39.6,33.3,42.0
1786377293.8957424,-1.736,-2.136,9.831,0.189,-0.045,0.094,42.75,-40.95,33.75,42.0
1786377294.1005986,-1.836,-1.604,9.433,-0.11,0.013,-0.053,40.5,-38.25,34.95,61.0
1786377294.1006227,-1.599,-1.97,9.852,-0.063,0.035,-0.034,42.45,-40.95,34.5,61.0
1786377294.1006343,-1.657,-2.224,9.814,0.119,0.074,0.027,42.15,-40.95,33.75,61.0
1786377294.3058355,-0.364,0.455,4.338,8.398,0.033,2.173,48.15,-34.2,45.3,1941.0
1786377294.30586,-1.255,3.862,2.478,8.463,-0.58,1.556,48.0,-32.4,51.45,1941.0
1786377294.3058708,-1.207,2.255,3.074,8.137,-0.552,1.044,44.85,-28.35,59.4,1941.0
1786377294.5105224,-0.886,9.536,7.278,-0.523,0.303,-0.236,53.4,-9.0,67.8,1161.0
1786377294.5105548,-2.425,9.155,6.812,-0.966,0.212,-0.253,53.7,-10.95,67.05,1120.0
1786377294.5105615,-2.109,7.997,6.486,-1.414,0.173,-0.288,51.0,-12.3,68.7,1120.0
1786377294.7148442,-2.528,7.836,6.481,-1.87,0.146,-0.24,51.3,-15.75,67.65,1120.0
1786377294.7148685,-2.954,7.216,6.5,-2.286,0.065,-0.182,49.8,-13.8,66.9,1120.0
1786377294.7148836,-3.208,7.389,6.907,-2.916,-0.122,-0.213,50.25,-19.2,65.85,1120.0
1786377294.920868,-1.872,-1.293,9.577,0.155,0.054,0.031,39.45,-40.95,38.25,93.0
1786377294.9208927,-1.956,-1.183,9.687,0.264,-0.019,0.054,39.6,-41.1,37.2,93.0
1786377294.9209042,-1.81,-0.752,9.524,0.242,-0.112,-0.002,40.95,-39.75,39.0,127.0
1786377295.124955,-1.822,-1.025,9.56,-0.067,-0.029,-0.014,40.5,-39.75,37.5,112.0
1786377295.1249793,-1.779,-1.19,9.716,0.031,-0.046,0.004,39.0,-40.95,37.5,112.0
1786377295.1249907,-1.597,-1.14,9.531,0.103,-0.015,-0.022,39.75,-40.5,37.05,118.0
1786377295.3304806,-1.65,-0.821,9.591,0.073,0.004,0.013,40.05,-40.65,37.65,145.0
1786377295.3305063,-1.554,-0.84,9.634,0.117,0.029,0.03,41.7,-39.3,39.0,145.0
1786377295.3305185,-1.681,-0.907,9.567,0.18,0.012,0.032,40.95,-40.5,39.0,255.0
1786377295.5342422,-1.76,-1.968,9.416,2.209,-0.088,0.656,42.6,-38.85,41.25,1461.0
1786377295.5342805,-1.906,-1.592,8.677,3.451,-0.209,1.12,45.6,-38.4,41.7,1461.0
1786377295.5342922,-1.532,-0.879,7.961,4.911,-0.446,1.535,47.1,-36.15,43.2,1461.0
1786377295.7399092,-0.005,9.752,8.897,-0.028,-0.174,-0.068,48.9,-16.8,67.5,1403.0
1786377295.7399333,0.548,9.088,8.71,-0.676,-0.09,-0.145,47.25,-16.5,67.65,1403.0
1786377295.7399445,0.153,7.944,8.691,-1.088,0.112,-0.137,48.6,-17.55,66.75,1403.0
1786377295.944018,-1.547,2.868,8.334,-3.59,0.049,-0.43,42.6,-37.65,54.9,1980.0
1786377295.9440427,-1.398,2.021,8.777,-3.226,-0.131,-0.508,43.95,-37.8,52.95,1980.0
1786377295.9440544,-0.453,-0.761,9.859,-2.589,-0.166,-0.528,42.15,-39.15,48.0,1980.0
1786377296.1482003,-0.577,0.12,9.249,0.326,-0.11,0.13,40.35,-41.1,44.7,1885.0
1786377296.1482246,-0.62,0.299,9.21,0.393,-0.048,0.111,41.85,-40.65,45.75,1929.0
1786377296.148237,-0.649,0.508,9.275,0.384,0.022,0.078,41.7,-40.5,46.65,1929.0
1786377296.3579466,-1.279,1.077,9.917,0.165,0.128,0.004,40.35,-42.3,49.05,1888.0
1786377296.357972,-1.379,1.018,9.96,0.18,0.117,-0.01,40.35,-40.65,48.0,1935.0
1786377296.3579834,-1.401,1.202,9.888,0.123,0.088,-0.03,42.9,-39.9,48.3,1935.0
1786377296.5635788,-2.231,-0.22,9.5,-1.501,0.469,-0.788,39.45,-40.2,42.3,1843.0
1786377296.563616,-1.781,-0.409,9.56,-1.404,0.416,-0.626,37.95,-40.95,41.55,1843.0
1786377296.563627,-2.121,-1.295,9.816,-1.397,0.436,-0.62,38.1,-41.1,40.2,1843.0
1786377296.7622635,-1.638,-2.389,9.098,0.082,-0.126,0.105,37.95,-42.9,34.5,69.0
1786377296.7622974,-1.559,-1.839,8.787,0.156,-0.185,0.09,36.45,-42.9,35.25,61.0
1786377296.7623086,-1.427,-1.903,8.83,0.127,-0.186,0.075,37.5,-43.65,35.25,61.0
1786377296.9676826,-0.275,3.622,3.551,6.789,-0.8,1.316,45.15,-30.3,58.2,84.0
1786377296.9677072,1.35,2.528,4.348,5.594,0.255,1.153,45.15,-30.3,58.2,1881.0
1786377296.9677181,-0.18,6.665,5.966,3.954,0.236,0.193,45.15,-22.5,65.55,1881.0
1786377297.17208,-1.554,7.673,7.697,-2.354,0.092,-0.535,48.3,-16.2,66.6,1182.0
1786377297.1721041,-1.537,7.065,7.499,-2.944,0.093,-0.624,47.25,-20.85,64.35,1339.0
1786377297.1721156,-2.033,6.802,7.666,-3.639,0.113,-0.729,46.5,-21.6,63.15,1339.0
1786377297.378041,-2.351,-2.217,9.914,-2.399,0.161,-0.603,40.8,-40.35,40.65,2049.0
1786377297.3780656,-2.052,-1.559,9.208,-1.47,0.167,-0.491,40.35,-38.85,40.2,2049.0
1786377297.378077,-1.875,-1.075,8.262,-1.151,0.233,-0.419,40.2,-39.3,36.75,107.0
1786377297.5815513,-1.767,-1.463,9.261,0.114,0.059,0.048,39.3,-40.35,36.9,62.0
1786377297.5815828,-1.973,-1.429,9.352,0.245,0.037,0.085,39.0,-40.95,36.0,62.0
1786377297.581589,-2.049,-1.223,9.347,0.318,-0.01,0.125,40.35,-40.65,36.9,72.0
1786377297.7872825,-1.891,-1.049,9.536,-0.005,-0.032,0.026,38.7,-42.15,37.8,85.0
1786377297.787378,-1.882,-1.209,9.517,-0.058,-0.005,-0.004,40.05,-41.1,40.2,85.0
1786377297.7875724,-1.961,-1.183,9.572,-0.06,0.018,-0.009,39.45,-39.3,38.25,85.0
1786377297.9915528,-2.433,1.185,5.21,7.335,-0.372,1.474,44.4,-35.25,46.8,1935.0
1786377297.9915771,-1.267,3.338,3.481,6.986,-0.408,1.158,46.5,-29.25,56.25,1935.0
1786377297.991588,-0.895,5.775,4.621,6.255,0.27,1.057,48.9,-26.1,61.2,1935.0
1786377298.1963403,-1.903,7.841,6.864,-2.514,0.018,-0.426,48.9,-13.65,69.3,1134.0
1786377298.1963637,-2.085,7.324,6.809,-2.856,0.04,-0.431,47.85,-16.35,67.5,1134.0
1786377298.196375,-2.576,6.85,7.032,-3.247,-0.007,-0.552,47.85,-17.55,66.3,1134.0
1786377298.4012015,-1.48,-0.771,9.51,-2.797,-0.009,-0.306,38.85,-38.4,48.3,1978.0
1786377298.401226,-2.547,-1.025,9.57,-1.842,-0.132,-0.111,38.55,-39.9,46.5,1978.0
1786377298.4012372,-1.973,-0.658,9.043,-1.104,-0.319,-0.066,38.55,-40.35,43.5,1978.0
1786377298.605813,-1.607,-0.113,9.254,0.048,-0.1,-0.024,38.85,-40.65,42.0,1852.0
1786377298.6058378,-1.82,-0.385,9.565,0.005,-0.088,-0.008,38.1,-40.35,42.75,1852.0
1786377298.605849,-1.69,-0.225,9.61,0.028,-0.073,-0.005,37.95,-39.3,42.3,1852.0
1786377298.8102188,-1.784,-0.268,9.685,0.024,0.083,0.044,38.7,-40.2,44.4,1905.0
1786377298.8102434,-1.841,-0.211,9.536,0.024,0.019,0.023,37.05,-42.6,41.25,1905.0
1786377298.8102543,-1.903,-0.266,9.519,0.01,-0.001,0.018,39.0,-40.5,43.05,1905.0
1786377299.0163252,-1.793,-0.278,9.483,0.045,0.049,-0.023,38.25,-41.25,43.05,1850.0
1786377299.0163503,-1.712,-0.278,9.505,0.083,0.043,-0.003,39.75,-42.45,44.1,1893.0
1786377299.0163615,-1.887,-0.225,9.4,0.121,0.005,0.029,38.1,-41.1,43.5,1893.0
1786377299.2201161,-1.178,4.19,4.034,7.573,-0.641,1.07,42.0,-28.5,62.1,1588.0
1786377299.22014,-0.876,5.425,4.326,6.758,-0.386,0.993,38.55,-24.15,67.05,1588.0
1786377299.220152,-0.369,9.22,5.14,4.585,0.053,0.852,41.25,-18.9,70.95,1588.0
1786377299.4247835,-3.072,6.055,6.926,-3.775,-0.523,-0.439,46.2,-21.15,65.85,1177.0
1786377299.424808,-2.047,5.279,7.389,-3.831,-0.657,-0.511,45.0,-27.75,61.8,1177.0
1786377299.4248197,-0.974,4.781,7.302,-3.946,-0.507,-0.607,45.0,-27.75,61.8,1933.0
1786377299.6297982,-1.276,-0.148,9.136,-1.539,-0.044,-0.242,38.85,-42.3,41.25,1942.0
1786377299.6298225,-1.097,-0.917,9.175,-1.441,0.008,-0.241,37.95,-42.45,41.1,1942.0
1786377299.6298337,-1.405,-1.3,8.878,-1.262,0.068,-0.164,37.95,-42.9,40.8,1745.0
1786377299.83418,-1.231,-1.106,9.438,0.281,0.06,0.036,38.7,-41.7,38.55,136.0
1786377299.834205,-1.542,-0.824,9.349,0.21,-0.003,-0.021,37.95,-43.2,39.3,136.0
1786377299.8342164,-1.444,-0.836,9.548,0.111,-0.032,-0.007,38.25,-42.45,40.35,231.0
1786377300.038934,-1.391,-0.891,9.747,-0.109,0.022,-0.049,40.05,-43.5,40.2,231.0
1786377300.0389588,-1.381,-0.855,9.749,-0.17,0.048,-0.061,38.1,-43.05,39.9,231.0
1786377300.03897,-1.305,-1.02,9.639,-0.171,0.112,-0.042,37.35,-42.3,39.45,231.0
1786377300.243972,-2.138,-0.469,6.63,5.46,0.053,0.618,41.25,-39.75,46.65,1921.0
1786377300.243995,-0.915,0.893,5.82,6.416,-0.037,0.835,42.6,-36.15,50.85,1921.0
1786377300.2440062,-1.528,2.875,4.762,6.666,-0.147,0.707,41.7,-33.6,55.5,1921.0
1786377300.4500718,-0.711,10.733,6.316,-0.188,-0.199,-0.262,48.0,-6.9,71.7,1004.0
1786377300.4500966,-0.828,9.457,5.887,-0.3,0.101,-0.184,46.35,-5.85,71.1,1004.0
1786377300.4501076,-1.966,8.964,5.485,-0.443,0.183,-0.262,45.9,-6.75,71.55,1004.0
1786377300.6530373,-2.605,6.977,6.531,-3.95,0.286,-1.073,42.6,-20.55,67.05,1160.0
1786377300.6530623,-2.593,5.72,6.567,-4.329,0.267,-1.149,42.6,-24.45,65.55,1160.0
1786377300.6530735,-3.115,4.59,7.13,-4.51,0.324,-0.982,41.55,-29.1,62.25,1160.0
1786377300.858329,-2.849,0.096,8.6,-1.318,-0.119,-0.278,34.95,-41.25,45.15,1976.0
1786377300.8583534,-2.586,-0.663,8.636,-1.234,-0.141,-0.241,34.95,-41.25,43.65,1976.0
1786377300.8583648,-2.887,-0.905,9.318,-1.042,-0.277,-0.144,33.6,-40.65,43.2,1976.0
1786377301.0626376,-2.313,-1.252,9.345,0.057,0.01,0.038,31.8,-42.6,39.9,93.0
1786377301.062662,-2.387,-1.156,9.297,0.096,0.032,0.051,35.1,-42.6,39.9,93.0
1786377301.0626724,-2.449,-1.075,9.256,0.082,0.002,0.037,33.9,-40.95,39.3,93.0
1786377301.2680795,-2.045,-1.056,9.395,0.156,-0.042,0.113,35.4,-42.15,39.6,109.0
1786377301.268104,-2.128,-1.058,9.4,0.253,-0.075,0.142,34.35,-43.05,40.2,123.0
1786377301.268115,-2.231,-1.226,9.448,0.44,-0.148,0.187,34.65,-43.05,40.65,123.0
1786377301.4720821,0.115,4.113,5.545,5.185,-0.871,1.399,40.2,-31.65,57.0,1935.0
1786377301.4721062,-0.702,4.343,6.584,4.517,-0.498,1.328,39.45,-27.75,61.05,1826.0
1786377301.4721174,-0.816,6.445,6.622,3.696,-0.616,1.135,40.8,-24.15,62.7,1826.0
1786377301.6768825,0.393,9.134,6.68,-0.427,0.145,-0.197,44.25,-10.05,69.45,1169.0
1786377301.6769068,0.515,8.698,6.565,-0.635,0.211,-0.329,45.9,-11.4,67.8,1116.0
1786377301.6769178,0.256,8.389,6.558,-0.715,0.289,-0.314,44.85,-10.95,68.85,1116.0
1786377301.8822615,-1.324,5.418,7.374,-4.38,0.428,-1.225,42.15,-28.8,59.7,1281.0
1786377301.8822987,-1.793,5.533,6.766,-4.763,0.301,-1.158,42.15,-32.25,56.4,2013.0
1786377301.8823097,-1.501,1.264,8.837,-4.479,0.494,-0.987,41.1,-34.95,53.85,2013.0
1786377302.087488,-1.686,-3.211,9.364,-0.859,0.314,0.056,35.4,-42.9,35.55,206.0
1786377302.0875127,-1.525,-2.167,8.792,-0.535,0.123,0.037,35.55,-42.6,34.35,206.0
1786377302.087524,-1.755,-2.14,8.478,-0.494,-0.014,-0.023,34.65,-42.9,34.2,43.0
1786377302.2986326,-1.999,-2.442,9.55,0.228,0.006,0.137,36.3,-40.65,34.65,38.0
1786377302.2986562,-2.073,-2.229,9.459,0.355,-0.076,0.117,36.6,-41.55,36.15,38.0
1786377302.2986672,-1.738,-1.621,9.187,0.216,-0.117,0.008,37.05,-41.1,34.65,38.0
1786377302.4941282,-1.666,-2.351,9.776,-0.073,0.043,0.059,35.7,-42.15,36.3,48.0
1786377302.7006788,-0.941,-0.074,7.887,4.734,0.331,0.789,35.1,-39.6,50.55,1913.0
1786377302.7007031,-0.682,1.496,6.292,5.947,0.488,1.035,35.7,-38.25,53.25,1913.0
1786377302.7007143,-0.977,3.642,5.306,6.567,0.177,1.042,37.8,-34.95,57.15,1913.0
1786377302.9061944,-0.505,11.013,6.266,-0.567,-0.105,-0.579,46.95,-3.0,70.95,976.0
1786377302.9062192,-0.515,10.022,5.837,-0.503,0.347,-0.002,45.0,-3.75,69.45,976.0
1786377302.9062304,-2.672,9.433,5.428,-1.031,0.125,-0.049,45.15,-7.5,70.35,976.0
1786377303.1104822,-1.69,5.028,6.812,-4.494,-0.123,-0.741,40.8,-29.85,63.45,1627.0
1786377303.110508,-1.243,3.551,7.087,-4.38,0.078,-0.711,38.55,-31.8,60.45,1627.0
1786377303.1105146,-1.274,2.619,7.681,-4.18,0.132,-0.846,39.75,-35.1,56.55,1627.0
1786377303.317083,-1.192,-0.721,9.115,-1.464,-0.061,-0.335,34.65,-41.25,40.8,1953.0
1786377303.3171082,-0.287,-1.645,9.021,-1.355,0.055,-0.325,35.55,-39.9,40.65,91.0
1786377303.3171196,-1.3,-1.829,9.613,-0.865,0.271,-0.263,35.1,-41.55,40.2,91.0
1786377303.520435,-1.47,-0.907,9.1,0.017,-0.037,-0.061,33.9,-41.7,37.8,70.0
1786377303.5204628,-1.566,-1.678,9.644,-0.178,0.061,-0.025,33.9,-43.2,39.6,51.0
1786377303.5204742,-1.611,-1.815,9.902,-0.088,0.118,0.042,33.3,-40.65,37.95,51.0
1786377303.724372,-1.793,-1.264,9.555,0.086,-0.063,0.001,34.65,-41.7,38.25,74.0
1786377303.7244,-1.563,-1.171,9.39,-0.128,-0.049,-0.061,34.8,-40.35,39.15,74.0
1786377303.7244112,-1.372,-1.279,9.5,-0.212,0.054,-0.046,33.6,-43.05,39.45,65.0
1786377303.9300687,-1.547,-1.944,9.747,1.286,-0.12,0.215,35.55,-42.3,39.9,70.0
1786377303.930093,-1.633,-1.817,9.328,1.961,-0.151,0.312,36.0,-42.45,40.8,70.0
1786377303.9301043,-1.501,-1.539,8.82,2.793,-0.27,0.369,35.85,-39.6,42.75,165.0
1786377304.1346433,0.05,9.287,5.447,4.648,0.094,0.413,40.2,-18.9,69.45,1966.0
1786377304.1346676,-0.333,11.715,6.081,2.602,0.487,-0.16,42.0,-11.1,71.25,1966.0
1786377304.1346788,-0.486,12.234,6.591,0.917,0.506,-0.891,44.1,-6.75,71.85,1016.0
1786377304.3394706,-2.03,7.307,6.469,-3.239,0.111,-0.349,44.25,-16.2,68.4,1118.0
1786377304.3394945,-2.95,6.694,6.816,-3.592,-0.052,-0.45,44.4,-18.75,66.3,1118.0
1786377304.339505,-2.363,6.852,6.768,-4.098,-0.415,-0.778,41.7,-24.3,66.6,1118.0
1786377304.5440373,-1.662,0.213,8.696,-2.877,-0.727,-0.44,36.75,-40.2,44.4,1934.0
1786377304.5440624,-0.455,-2.579,9.589,-2.245,-0.534,-0.277,36.0,-40.2,40.05,1934.0
1786377304.5440738,-1.425,-2.638,9.749,-1.303,-0.279,-0.024,36.3,-39.15,39.15,1934.0
1786377304.7484498,-1.439,-0.871,8.935,-0.051,-0.16,-0.004,35.1,-40.35,39.15,75.0
1786377304.7485301,-1.255,-1.188,9.251,-0.272,-0.072,0.031,34.8,-40.65,36.9,75.0
1786377304.748542,-1.396,-1.729,9.819,-0.114,-0.039,0.077,34.8,-41.1,36.9,75.0
1786377304.9531646,-1.207,-1.319,9.527,0.046,-0.113,-0.001,34.95,-40.5,37.05,80.0
1786377304.9531903,-1.077,-1.243,9.498,-0.111,-0.046,-0.039,35.85,-39.6,36.15,80.0
1786377304.9532018,-1.166,-1.549,9.764,-0.154,0.012,-0.029,35.1,-42.3,36.9,80.0
1786377305.1579995,-1.089,-1.319,9.342,0.351,-0.059,0.086,36.0,-40.2,38.25,62.0
1786377305.1580245,-1.065,-1.331,9.297,0.386,-0.081,0.076,35.85,-41.1,38.4,62.0
1786377305.1580355,-1.058,-1.338,9.452,0.427,-0.062,0.092,35.55,-39.6,39.9,62.0
1786377305.3630822,0.096,4.302,4.537,7.127,-0.126,0.941,39.6,-29.55,63.0,1998.0
1786377305.3631074,0.469,6.665,4.882,6.691,0.085,0.749,39.75,-23.55,67.95,1998.0
1786377305.363119,-0.819,8.653,5.373,5.47,0.187,0.391,40.8,-19.05,71.1,1998.0
1786377305.5678823,-1.808,9.072,5.77,-1.502,0.282,-0.69,47.1,-8.25,70.8,1024.0
1786377305.5679073,-2.363,8.641,5.59,-1.879,0.101,-0.574,46.65,-8.7,71.1,1024.0
1786377305.5679185,-2.346,8.416,5.844,-2.383,-0.049,-0.512,46.35,-14.1,70.05,1024.0
1786377305.7727468,-1.137,3.292,7.254,-4.025,-0.507,-0.567,40.05,-34.5,57.45,2006.0
1786377305.7727716,-1.077,2.354,8.313,-3.727,-0.391,-0.732,39.3,-36.15,53.4,2006.0
1786377305.7727823,-1.173,1.911,8.495,-3.454,-0.367,-0.676,37.8,-37.2,52.05,2006.0
1786377305.9770358,-0.848,-1.616,9.711,-0.291,0.003,0.032,32.85,-41.55,39.15,206.0
1786377305.97706,-1.03,-1.259,9.735,-0.178,0.02,0.046,34.65,-40.2,38.25,104.0
1786377305.9770713,-1.456,-1.116,9.345,-0.152,0.008,-0.006,33.6,-41.55,39.15,104.0
1786377306.18383,-0.888,-1.283,9.615,0.136,0.049,0.026,34.65,-41.25,39.0,83.0
1786377306.183853,-1.164,-1.25,9.675,0.16,0.086,0.046,34.35,-41.55,38.7,83.0
1786377306.183864,-1.154,-1.073,9.649,0.179,0.073,0.048,34.2,-42.45,40.05,107.0
1786377306.3868318,-1.166,-2.128,9.278,2.52,0.064,0.364,35.1,-41.55,43.2,133.0
1786377306.386855,-1.496,-1.341,8.514,3.745,0.071,0.709,36.0,-40.2,44.85,133.0
1786377306.386866,-0.371,-0.848,7.219,5.245,0.177,1.255,38.25,-37.05,45.9,1928.0
1786377306.5917578,-0.558,11.768,6.893,1.035,0.052,-0.689,45.9,-9.0,72.3,1210.0
1786377306.5917833,-0.23,11.274,6.716,0.362,0.071,-0.707,46.35,-8.25,72.3,1210.0
1786377306.5917943,-0.057,10.104,6.646,-0.012,0.209,-0.487,44.7,-5.7,72.75,1016.0
1786377306.7961988,-1.525,7.721,5.993,-2.273,-0.01,-0.351,42.9,-14.1,70.8,1067.0
1786377306.7962227,-1.41,6.847,6.366,-2.744,0.092,-0.482,43.95,-17.4,68.7,1067.0
1786377306.7962337,-1.377,6.919,6.639,-3.093,0.04,-0.586,42.75,-19.2,68.7,1304.0
1786377307.000954,-0.826,1.324,8.909,-3.379,-0.432,-0.125,38.7,-37.5,50.4,2008.0
1786377307.0009797,-0.848,0.043,9.22,-2.573,-0.443,-0.042,38.1,-39.15,49.35,2008.0
1786377307.0009906,-1.113,0.163,9.687,-1.836,-0.591,0.057,38.85,-37.95,44.25,2008.0
1786377307.2055092,-0.742,-0.673,9.426,-0.401,0.01,-0.102,36.45,-40.5,42.3,1830.0
1786377307.2055335,-1.135,-1.034,9.852,-0.236,0.099,0.0,36.3,-42.3,42.45,1830.0
1786377307.2055447,-1.168,-0.678,9.766,0.127,0.006,0.095,37.05,-39.9,40.65,1830.0
1786377307.4104884,-1.027,-0.148,9.582,0.192,-0.131,0.028,36.75,-39.75,43.35,1772.0
1786377307.4105127,-0.804,0.026,9.474,-0.032,-0.045,-0.003,36.75,-39.75,43.05,1772.0
1786377307.410524,-0.733,-0.383,10.051,-0.11,0.047,-0.038,35.85,-41.55,42.75,1772.0
1786377307.6166964,-0.879,-1.034,9.414,1.697,-0.053,0.394,35.4,-39.75,44.4,1862.0
1786377307.6167212,-1.405,-1.793,9.182,3.137,-0.177,0.734,37.95,-39.3,45.15,1884.0
1786377307.616732,-0.503,-0.409,7.685,4.784,-0.324,1.031,38.25,-37.8,44.1,1884.0
1786377307.8209267,-0.448,10.551,6.718,0.357,0.193,-0.741,46.2,-6.9,69.45,1040.0
1786377307.8209515,-0.213,10.046,6.539,0.175,0.325,-0.482,47.4,-7.05,71.1,1040.0
1786377307.8209622,-1.058,9.9,6.505,-0.292,0.259,-0.495,46.95,-7.65,69.9,1040.0
1786377308.0258,-1.065,6.663,6.967,-3.663,-0.069,-0.813,42.0,-18.9,67.2,1102.0
1786377308.0258238,-1.448,5.207,7.044,-4.003,0.162,-0.809,43.35,-21.75,66.75,1526.0
1786377308.025835,-1.887,5.277,7.661,-4.159,0.042,-0.88,39.75,-25.5,62.85,1526.0
1786377308.2300582,-1.844,-0.057,8.66,-1.695,-0.361,-0.251,35.1,-39.6,41.7,1967.0
1786377308.2300828,-1.654,-0.86,8.61,-1.599,-0.311,-0.184,36.45,-40.2,40.35,1967.0
1786377308.2300942,-1.688,-1.537,9.009,-1.318,-0.246,-0.022,34.95,-40.2,38.55,1967.0
1786377308.4350054,-1.223,-1.053,9.306,0.235,-0.039,0.06,33.3,-40.35,37.65,73.0
1786377308.4350288,-1.154,-1.034,9.287,0.078,-0.063,-0.059,33.3,-41.1,38.4,73.0
1786377308.4350398,-1.223,-1.317,9.699,-0.143,-0.013,-0.073,34.35,-40.65,38.4,74.0
1786377308.639482,-1.252,-1.856,9.828,0.347,-0.035,0.161,34.35,-39.9,38.4,60.0
1786377308.6395073,-1.228,-1.899,9.699,0.598,-0.086,0.171,33.6,-39.9,37.65,60.0
1786377308.6395183,-1.235,-1.551,9.251,0.806,-0.12,0.253,36.75,-39.75,38.55,79.0
1786377308.8436818,-0.057,1.903,5.552,6.287,0.698,0.831,39.6,-33.45,54.15,1855.0
1786377308.8437076,-0.376,2.895,4.537,7.055,0.649,0.913,40.35,-30.3,59.4,1855.0
1786377308.843719,-2.073,3.608,4.178,7.397,0.346,0.769,39.75,-28.95,61.35,1869.0
1786377309.0486465,-0.098,9.261,6.057,-0.341,0.148,0.114,44.4,-5.55,70.8,980.0
1786377309.0486715,-0.888,9.349,5.356,-0.171,0.19,0.183,44.7,-6.45,70.2,980.0
1786377309.0486827,-1.786,9.17,5.306,-0.4,0.044,0.044,45.45,-8.85,72.45,980.0
1786377309.2541785,-0.5,4.594,7.448,-3.132,-0.435,-0.512,38.25,-29.25,62.1,1625.0
1786377309.2542033,0.218,3.172,8.255,-2.659,-0.115,-0.511,37.5,-30.9,61.05,1625.0
1786377309.2542143,-0.532,3.639,8.966,-2.176,0.045,-0.541,37.35,-33.45,58.95,1625.0
1786377309.4586868,-1.602,1.602,8.859,-2.131,-0.271,-0.44,34.95,-39.0,49.65,1954.0
1786377309.4587114,-1.563,0.441,9.208,-2.239,-0.332,-0.41,33.9,-40.5,48.9,1954.0
1786377309.4587226,-1.039,-0.333,9.665,-2.172,-0.391,-0.334,33.3,-42.6,47.25,1954.0
1786377309.662703,-1.422,-0.63,9.124,0.094,-0.181,-0.039,31.2,-42.15,41.55,119.0
1786377309.6627276,-0.838,-0.709,8.983,-0.08,-0.067,-0.039,33.15,-41.7,40.35,119.0
1786377309.6627388,-0.986,-0.936,9.33,-0.034,0.037,0.055,32.55,-42.3,41.7,119.0
1786377309.8678482,-1.374,-1.164,9.596,0.575,0.039,0.136,31.05,-41.85,40.95,114.0
1786377309.867873,-1.125,-1.437,9.625,1.004,0.026,0.223,33.6,-41.55,40.95,114.0
1786377309.867884,-0.69,-2.095,9.802,1.99,0.107,0.389,32.4,-40.95,43.05,114.0
1786377310.0733254,-1.441,7.221,5.025,5.975,0.25,0.204,39.3,-24.9,65.55,1941.0
1786377310.07335,-1.547,9.416,5.842,4.853,0.333,0.042,39.6,-18.75,70.05,1190.0
1786377310.0733612,-1.324,11.104,6.328,2.26,0.399,-0.459,39.0,-16.2,71.25,1190.0
1786377310.2768333,-1.827,7.317,5.454,-0.878,-0.13,0.275,40.05,-13.65,68.85,1048.0
1786377310.2768579,-2.231,7.417,5.552,-1.04,-0.063,0.161,41.7,-12.75,69.9,1096.0
1786377310.4836202,-1.106,2.789,8.219,-4.228,-0.219,-0.455,36.3,-34.2,57.45,1346.0
1786377310.4836447,-1.475,1.776,9.38,-3.879,-0.214,-0.422,36.6,-36.45,57.15,2011.0
1786377310.4836552,-1.937,2.004,8.76,-3.056,-0.299,-0.301,36.6,-35.7,50.85,2011.0
1786377310.6865249,-0.953,-0.929,9.21,-0.1,-0.23,0.13,35.85,-40.35,42.45,1926.0
1786377310.6865487,-1.006,-0.33,8.892,0.029,-0.233,0.012,33.9,-42.15,41.55,1926.0
1786377310.68656,-1.369,-0.067,8.988,-0.094,-0.233,-0.016,33.9,-39.3,41.85,1700.0
1786377310.8924391,-0.943,-0.045,9.819,-0.163,0.037,-0.063,34.65,-41.7,41.1,1768.0
1786377310.8924673,-1.037,-0.369,9.833,-0.204,0.06,-0.057,33.6,-41.1,43.95,1768.0
1786377310.8924782,-1.185,-0.364,9.847,-0.194,0.054,-0.048,34.05,-39.6,40.95,1768.0
1786377311.0962582,-0.702,2.105,4.01,7.498,0.656,1.533,41.7,-31.2,51.45,1931.0
1786377311.0962944,-2.035,3.481,3.852,7.784,0.053,1.227,41.25,-28.5,55.5,1931.0
1786377311.096306,-0.663,3.828,3.56,7.463,-0.489,0.662,40.05,-26.1,62.25,1931.0
1786377311.3015473,-2.334,9.768,5.952,-0.786,0.231,-0.177,43.35,-6.3,68.85,1009.0
1786377311.3015723,-2.054,9.139,5.952,-1.388,0.107,-0.268,41.85,-9.75,70.05,1009.0
1786377311.3015833,-2.236,8.576,5.995,-1.86,0.052,-0.362,44.1,-10.95,70.8,1009.0
1786377311.5061057,-2.555,3.768,7.18,-4.574,-0.088,-0.596,36.45,-30.9,61.35,1727.0
1786377311.5061307,-2.26,4.53,7.977,-4.66,-0.495,-0.547,36.6,-32.55,55.35,1727.0
1786377311.5061417,-2.488,2.686,7.848,-4.475,-0.828,-0.453,35.85,-34.95,53.25,1727.0
1786377311.710314,-0.682,-1.647,9.275,-0.255,0.079,0.09,31.8,-41.55,38.7,60.0
1786377311.7103426,-1.156,-1.006,9.05,-0.027,0.065,-0.032,31.35,-41.1,39.15,60.0
1786377311.710355,-1.207,-0.639,8.882,-0.055,-0.033,-0.148,32.4,-39.75,40.05,60.0
1786377311.9159327,-1.662,-0.826,9.867,0.131,0.229,0.036,31.95,-40.5,41.55,59.0
1786377311.9159577,-1.724,-0.692,9.646,0.101,0.048,0.009,31.35,-40.65,40.95,59.0
1786377311.9159691,-1.585,-0.625,9.548,-0.052,-0.056,-0.024,33.3,-40.65,40.95,59.0
1786377312.119961,-0.917,-1.695,9.656,0.511,0.052,0.061,32.7,-40.5,40.05,85.0
1786377312.1199858,-1.726,-1.348,9.5,1.181,0.101,-0.015,34.35,-38.85,39.45,85.0
1786377312.1199973,-1.477,-2.155,9.299,2.077,0.035,-0.034,35.7,-38.55,39.6,85.0
1786377312.324668,-0.778,9.026,4.822,4.156,0.458,0.682,35.55,-14.4,72.9,1060.0
1786377312.3246922,-1.82,13.429,5.66,0.776,0.495,-0.158,35.85,-12.45,75.6,1060.0
1786377312.3247032,-0.828,15.031,6.917,-0.864,0.087,-0.797,41.7,-9.15,73.2,1060.0
1786377312.5296488,-0.845,3.33,7.506,-4.484,-0.375,-0.564,37.8,-30.6,59.4,1299.0
1786377312.5296724,-1.085,2.741,7.992,-4.197,-0.079,-0.366,35.55,-34.95,55.35,2025.0
1786377312.5296834,-1.92,2.167,9.234,-4.054,-0.591,-0.415,34.65,-35.55,53.25,2025.0
1786377312.7345212,-2.198,-0.709,9.038,-0.402,-0.204,0.097,32.55,-39.6,42.0,1856.0
1786377312.7345598,-1.654,-0.675,8.705,-0.374,-0.327,0.032,32.4,-39.75,41.55,1856.0
1786377312.7345726,-1.566,-0.584,8.775,-0.326,-0.356,0.015,32.55,-39.6,39.9,231.0
1786377312.94561,-1.089,-0.165,9.761,0.14,-0.065,0.055,31.2,-39.0,41.85,191.0
1786377312.9456341,-0.939,-0.285,9.819,-0.072,0.028,-0.009,31.95,-40.95,42.6,191.0
1786377312.9456453,-1.027,-0.505,9.989,-0.084,0.105,-0.006,33.3,-39.9,41.7,268.0
1786377313.14379,-1.099,-0.333,9.388,-0.089,-0.023,-0.037,32.7,-38.55,40.8,260.0
1786377313.1438136,-1.123,-0.297,9.51,-0.276,0.049,-0.116,33.15,-39.75,41.1,260.0
1786377313.143825,-1.178,-0.759,9.725,-0.406,0.11,-0.123,31.35,-39.6,41.7,178.0
1786377313.348592,0.378,1.848,4.954,6.763,0.686,0.763,38.1,-31.5,56.1,1926.0
1786377313.3486164,-0.206,3.639,4.942,6.856,0.531,0.754,38.1,-31.5,56.1,1926.0
1786377313.3486276,-2.239,6.582,4.697,6.588,0.365,0.733,35.85,-22.5,64.8,1364.0
1786377313.5533671,-0.965,9.481,6.347,-0.885,0.226,-0.322,41.55,-8.25,70.05,1037.0
1786377313.55339,-1.274,8.72,6.086,-1.397,0.204,-0.573,40.95,-10.05,69.9,1037.0
1786377313.5534012,-1.523,7.75,6.127,-1.616,0.211,-0.584,41.25,-12.75,67.65,1037.0
1786377313.7586195,-2.99,4.659,8.531,-4.0,-0.527,-0.172,37.2,-31.65,57.3,1778.0
1786377313.7586427,-1.094,2.059,8.497,-3.713,-0.719,-0.108,35.85,-33.75,54.6,1778.0
1786377313.7586536,-0.874,1.712,8.844,-3.295,-0.628,-0.377,34.65,-36.3,51.45,1778.0
1786377313.9635177,-2.114,-1.082,9.041,-0.732,0.078,-0.177,31.35,-39.15,42.0,1962.0
1786377313.9635422,-1.86,-1.209,9.213,-0.327,0.003,-0.005,33.15,-40.2,40.8,1962.0
1786377313.963554,-1.769,-0.879,8.973,0.186,-0.19,0.118,32.1,-38.85,41.7,1962.0
1786377314.1677494,-1.575,-0.113,9.627,0.12,-0.038,0.007,31.65,-39.75,44.4,149.0
1786377314.1677742,-1.499,-0.103,9.711,-0.061,-0.019,-0.065,31.2,-40.5,44.1,187.0
1786377314.1677854,-1.501,-0.436,9.883,-0.176,0.091,-0.036,31.35,-40.65,43.2,187.0
1786377314.3725865,-1.827,-1.087,8.325,3.764,0.047,0.91,35.55,-38.4,43.5,163.0
1786377314.3726208,-1.616,0.347,6.807,5.202,-0.137,1.153,36.45,-36.3,45.9,1973.0
1786377314.3726275,-1.075,2.15,5.234,6.101,-0.251,1.228,36.75,-33.6,51.75,1973.0
1786377314.578002,-1.391,10.949,7.307,-1.025,0.032,-0.287,38.85,-10.95,72.6,1188.0
1786377314.5780249,-1.106,9.907,7.324,-1.562,-0.018,-0.136,38.25,-14.25,71.25,1091.0
1786377314.5780365,-1.372,8.313,7.178,-1.916,-0.084,-0.105,37.8,-14.4,70.05,1091.0
1786377314.782646,-2.033,3.179,8.09,-3.385,-0.342,-0.385,34.8,-34.2,57.15,1419.0
1786377314.7826717,-1.774,3.385,8.021,-3.291,-0.478,-0.366,32.85,-35.7,55.65,2015.0
1786377314.7826836,-1.264,1.575,8.624,-2.69,-0.375,-0.294,35.1,-36.15,52.35,2015.0
1786377314.9871764,-0.833,-0.175,9.117,-0.282,-0.003,-0.035,32.4,-41.25,44.85,1927.0
1786377314.9871936,-1.341,0.103,9.316,0.21,0.034,0.047,31.35,-39.6,43.95,1852.0
1786377315.191346,-1.405,0.419,9.764,-0.107,0.081,-0.018,31.8,-37.95,45.0,1901.0
1786377315.1913667,-1.621,0.223,9.876,-0.092,0.081,0.014,30.6,-40.35,45.0,1926.0
1786377315.1913786,-1.642,0.29,9.905,-0.012,-0.004,0.009,32.1,-39.9,45.75,1926.0
1786377315.3960042,-0.577,0.575,8.15,4.139,0.302,0.991,33.45,-37.8,47.7,1890.0
1786377315.396027,-0.251,0.74,6.323,5.381,0.255,1.217,34.35,-37.2,52.05,2014.0
1786377315.396039,-0.153,2.873,4.678,6.561,0.28,1.244,35.1,-35.25,53.85,2014.0
1786377315.6007488,-2.593,13.154,5.835,-1.162,-0.367,-1.157,41.55,-5.55,72.9,975.0
1786377315.6007721,-1.233,11.226,5.959,-1.147,-0.338,-0.467,40.35,-4.8,70.8,975.0
1786377315.600783,-1.451,10.118,5.976,-0.99,-0.089,0.103,41.55,-4.8,71.85,972.0
1786377315.8059187,-1.544,4.278,8.152,-3.389,-1.274,0.092,31.8,-33.0,58.95,1948.0
1786377315.8059413,-1.003,2.641,7.977,-2.878,-1.205,0.144,32.7,-34.35,58.5,1948.0
1786377315.8059523,0.898,1.41,9.225,-2.125,-0.834,0.025,31.35,-36.45,53.85,1948.0
1786377316.0104508,-1.087,1.168,8.938,-0.093,-0.262,0.023,29.7,-40.5,49.95,1939.0
1786377316.0104744,-0.946,1.279,9.088,-0.123,-0.255,0.065,29.55,-39.9,49.05,1939.0
1786377316.0104856,-0.831,1.135,9.369,-0.122,-0.195,0.109,29.4,-40.5,50.4,1939.0
1786377316.2153308,-0.922,1.389,9.742,-0.16,-0.088,0.037,28.65,-38.25,48.15,1925.0
1786377316.2153554,-0.86,1.199,9.768,-0.254,-0.046,-0.02,28.8,-39.6,49.05,1925.0
1786377316.2153668,-0.754,1.353,9.543,-0.408,0.026,-0.072,29.85,-39.9,50.1,1925.0
1786377316.4202359,-0.053,0.072,7.19,4.579,0.551,1.123,34.95,-36.3,48.45,1972.0
1786377316.4202588,-0.005,2.342,5.061,6.016,0.391,1.414,37.05,-33.45,52.8,1972.0
1786377316.4202797,-0.129,3.687,3.491,6.738,0.118,1.485,37.95,-30.9,55.8,1972.0
1786377316.6251054,-0.357,9.84,6.431,-1.006,-0.097,-0.016,38.55,-11.7,70.35,1028.0
1786377316.6251297,-0.134,9.438,6.297,-0.976,0.065,0.127,36.45,-12.3,70.95,1028.0
1786377316.6251407,-1.168,9.199,6.232,-1.258,0.154,0.037,38.55,-15.15,72.3,1028.0
1786377316.830015,-0.934,3.637,8.219,-4.736,-0.311,-0.648,30.9,-37.05,60.6,2015.0
1786377316.83004,-0.285,1.374,9.345,-4.11,-0.391,-0.385,33.15,-37.8,57.75,2015.0
1786377316.8300514,-1.271,1.477,9.282,-3.419,-0.584,-0.206,33.15,-38.25,52.95,2015.0
1786377317.0344503,-1.377,-1.099,9.313,-0.011,0.002,0.172,30.45,-41.7,40.05,151.0
1786377317.0344741,-1.437,-0.371,8.626,0.097,-0.339,-0.01,31.2,-42.15,42.6,151.0
1786377317.0344856,-0.709,-0.318,8.586,-0.076,-0.344,-0.082,30.6,-41.55,41.25,151.0
1786377317.239021,-0.771,-0.596,10.137,-0.167,0.073,-0.041,28.5,-43.05,42.45,156.0
1786377317.2390456,-0.991,-0.737,10.269,0.015,0.105,0.025,29.85,-43.05,41.25,170.0
1786377317.2390573,-0.994,-0.395,10.008,0.1,0.039,-0.001,29.85,-43.5,42.75,170.0
1786377317.4439123,0.194,2.059,5.497,6.514,0.219,1.303,34.2,-37.5,52.2,1911.0
1786377317.4439392,-0.91,4.319,4.592,6.474,-0.126,1.098,34.95,-36.3,57.3,1911.0
1786377317.4439504,-0.893,3.677,4.918,6.289,-0.3,0.755,33.45,-31.65,63.15,1911.0
1786377317.6486027,-1.202,6.835,8.464,-2.473,0.192,-0.403,35.1,-22.2,68.55,1143.0
1786377317.6486273,-2.042,7.774,8.066,-2.587,0.249,-0.455,34.2,-24.3,67.2,1143.0
1786377317.6486385,-1.563,6.625,7.513,-2.938,0.0,-0.448,34.65,-27.75,65.1,1143.0
1786377317.8535342,-0.802,0.055,9.203,-2.399,-0.353,-0.049,29.85,-42.3,49.35,1992.0
1786377317.8535578,0.072,-0.148,9.33,-1.381,-0.252,-0.044,29.7,-42.15,47.4,1992.0
1786377318.058061,-0.718,-0.56,9.268,-0.059,-0.026,0.016,30.45,-44.85,41.55,1786.0
1786377318.0580785,-0.668,-0.788,9.505,0.172,-0.018,0.047,29.85,-43.8,45.0,1786.0
1786377318.05809,-0.713,-0.539,9.582,0.337,-0.053,0.057,28.5,-41.55,44.25,1786.0
1786377318.2628162,-0.663,0.089,9.443,0.07,0.004,-0.031,28.95,-42.9,44.1,1833.0
1786377318.26284,-0.606,-0.091,9.598,0.012,0.073,-0.037,28.95,-43.2,45.15,1833.0
1786377318.2628512,-0.749,-0.18,9.708,0.039,0.092,0.009,29.4,-43.2,45.6,1833.0
1786377318.4676208,0.486,3.105,4.36,7.431,-0.148,1.236,34.05,-35.25,52.05,1977.0
1786377318.4676454,-0.048,2.854,4.429,7.981,-0.265,1.109,34.8,-32.55,59.4,1977.0
1786377318.4676561,-0.045,4.853,3.797,7.652,-0.211,1.066,33.3,-25.65,63.75,1977.0
1786377318.6724188,-1.451,8.08,6.721,-2.705,0.54,-0.383,36.75,-19.2,68.7,1141.0
1786377318.6725345,-1.592,7.211,6.706,-2.992,0.325,-0.574,36.75,-19.2,68.4,1141.0
1786377318.672547,-1.511,6.481,7.214,-3.302,0.146,-0.41,35.4,-25.05,66.6,1141.0
1786377318.8773994,-0.007,0.888,9.062,-3.209,-0.076,-0.163,31.35,-40.65,46.5,1887.0
1786377318.8774228,0.881,0.426,8.973,-2.653,0.016,-0.188,30.45,-40.95,45.9,1887.0
1786377318.877434,-0.132,-0.733,9.536,-1.898,0.209,-0.096,30.6,-41.85,42.45,1887.0
1786377319.0815358,-0.661,-0.713,9.582,0.191,-0.048,-0.016,30.45,-44.85,39.6,187.0
1786377319.0815609,-0.654,-0.639,9.677,0.107,-0.04,-0.032,29.7,-44.4,41.1,187.0
1786377319.2865658,-0.543,-1.879,9.608,2.161,0.203,0.326,33.3,-41.1,43.5,200.0
1786377319.2865865,-0.857,-1.76,9.455,3.443,0.027,0.284,34.2,-41.25,43.65,200.0
1786377319.2865977,-0.74,-0.472,8.035,4.599,-0.144,0.19,34.2,-39.75,47.4,1897.0
1786377319.4912767,0.45,10.934,7.343,0.45,-0.039,-0.019,36.0,-15.75,73.2,1257.0
1786377319.4912965,0.359,10.566,7.276,-0.32,0.013,-0.136,35.85,-15.15,72.6,1257.0
1786377319.4913077,0.4,9.436,7.056,-0.599,0.122,-0.181,34.2,-16.2,71.7,1070.0
1786377319.6963804,-1.154,6.661,6.977,-1.995,0.313,-0.784,35.1,-22.5,70.05,1151.0
1786377319.6964352,-1.36,6.318,7.128,-2.21,0.412,-0.849,34.05,-25.65,67.5,1151.0
1786377319.6964424,-1.927,6.254,7.393,-2.401,0.358,-0.765,34.65,-27.0,68.7,1418.0
1786377319.9010298,-2.495,1.724,8.95,-1.499,0.253,-0.26,32.55,-40.35,54.15,2006.0
1786377319.9010537,-2.081,1.472,8.729,-1.112,0.0,-0.18,32.7,-41.25,51.0,2006.0
1786377319.9010649,-2.09,1.274,8.78,-0.852,-0.163,-0.213,31.05,-41.1,52.35,1978.0
1786377320.1059647,-1.798,1.195,9.258,0.142,-0.101,0.035,30.9,-41.7,52.2,1973.0
1786377320.1059883,-1.63,1.475,9.27,0.06,-0.1,0.035,30.9,-42.45,51.75,1973.0
1786377320.106,-1.628,1.381,9.529,0.022,-0.035,0.077,29.7,-41.7,52.5,1973.0
1786377320.3104591,-1.829,1.391,9.541,-0.019,-0.028,-0.004,31.2,-42.45,51.75,1963.0
1786377320.310484,-1.707,1.329,9.529,0.016,-0.026,0.015,30.6,-42.3,53.1,1963.0
1786377320.3104951,-1.781,1.597,9.395,-0.093,-0.038,0.003,30.3,-42.6,52.35,1963.0
1786377320.521505,-0.67,2.693,5.665,5.178,-0.652,1.485,36.6,-33.0,57.45,1989.0
1786377320.5215287,-0.527,3.682,5.21,5.729,-0.774,1.635,35.1,-29.55,61.5,1989.0
1786377320.5215397,-0.024,3.615,4.903,5.887,-0.968,1.672,33.6,-26.85,66.0,1989.0
1786377320.7176602,-0.259,8.966,6.364,-1.774,0.463,-0.852,34.8,-16.8,72.3,1032.0
1786377320.717685,-0.158,7.755,6.536,-2.044,0.502,-0.966,34.95,-19.65,71.7,1165.0
1786377320.7289546,-0.373,7.312,6.814,-2.267,0.468,-1.036,34.65,-21.6,68.7,1165.0
1786377320.925339,-0.965,3.072,8.179,-2.067,0.156,-0.691,32.1,-35.7,61.95,1566.0
1786377320.9253638,-1.147,2.677,8.538,-1.527,0.391,-0.385,30.15,-36.6,61.05,2006.0
1786377320.9253752,-2.33,3.256,8.715,-1.418,0.146,-0.41,31.95,-39.3,59.55,2006.0
1786377321.1305757,-1.942,0.85,9.285,-0.451,0.002,-0.172,29.4,-42.45,50.7,1962.0
1786377321.1306005,-1.757,0.958,9.34,-0.211,0.039,-0.068,28.5,-41.85,51.6,1962.0
1786377321.1306114,-2.258,1.192,9.273,-0.113,-0.033,-0.04,28.95,-42.15,50.7,1962.0
1786377321.3347025,-1.867,1.286,9.299,-0.403,-0.005,-0.098,29.25,-42.3,52.05,1969.0
1786377321.334727,-1.903,1.379,9.4,-0.541,0.051,-0.088,28.5,-41.85,51.3,1949.0
1786377321.3347385,-1.982,0.536,9.943,-0.486,0.078,-0.035,28.95,-42.9,49.65,1949.0
1786377321.539885,-1.93,-0.4,9.359,0.599,-0.117,0.229,30.6,-42.6,48.3,1956.0
1786377321.5399096,-1.865,-0.505,8.758,1.263,-0.187,0.386,31.35,-41.1,47.55,1947.0
1786377321.5399208,-1.803,-1.513,9.1,2.785,-0.216,0.755,37.35,-36.45,47.55,1947.0
1786377321.744057,0.766,11.167,8.286,-1.404,-0.239,-0.787,39.0,-14.55,69.15,1367.0
1786377321.7440846,1.037,10.376,8.267,-1.746,0.005,-0.724,40.8,-16.35,67.5,1177.0
1786377321.7440958,0.357,8.904,8.157,-1.816,0.514,-0.461,38.55,-17.55,68.25,1177.0
1786377321.9493506,-0.584,2.375,8.751,-3.233,0.175,-0.852,34.65,-36.6,56.55,1581.0
1786377321.9493752,-0.283,0.661,9.266,-2.932,0.41,-0.645,32.7,-36.3,55.8,1994.0
1786377321.9493866,-2.059,1.116,8.983,-2.595,0.327,-0.581,30.15,-38.25,54.0,1994.0
1786377322.1561632,-2.102,-0.757,9.416,-0.228,-0.012,0.039,29.55,-42.3,45.0,1945.0
1786377322.156187,-1.87,0.031,8.566,-0.338,-0.248,-0.106,30.45,-43.2,44.4,1945.0
1786377322.1561985,-1.358,-0.558,8.933,-0.534,-0.231,-0.1,28.65,-43.2,43.65,1856.0
1786377322.3584104,-1.628,-0.804,9.845,-0.294,0.083,-0.082,28.8,-43.8,43.5,1805.0
1786377322.3584352,-1.748,-1.183,9.981,-0.24,0.152,-0.057,30.3,-44.25,42.45,1805.0
1786377322.3584461,-2.042,-0.876,9.845,-0.092,0.134,-0.018,30.6,-45.0,42.0,1805.0
1786377322.5638232,-1.669,-1.228,9.301,0.279,-0.004,0.09,28.05,-44.25,40.2,1805.0
1786377322.5638483,-1.671,-1.401,9.371,0.584,0.011,0.155,28.8,-45.0,41.25,1805.0
1786377322.5638595,-1.978,-1.76,9.5,1.172,-0.072,0.266,28.65,-44.85,42.3,1805.0
1786377322.7678177,-0.488,6.4,5.521,5.72,0.074,0.77,36.45,-25.05,66.6,1547.0
1786377322.7678416,-0.771,9.012,5.804,4.458,0.212,0.484,37.2,-18.45,71.25,1547.0
1786377322.767853,-1.101,10.661,6.45,2.713,0.224,0.034,37.2,-18.45,71.25,1547.0
1786377322.9733257,-1.714,7.755,6.574,-2.202,0.142,-0.333,37.2,-18.15,70.65,1095.0
1786377322.973351,-2.095,7.786,6.986,-2.554,0.046,-0.422,38.7,-20.4,68.7,1095.0
1786377322.9733617,-2.023,7.793,7.132,-2.988,-0.032,-0.462,37.8,-23.25,68.55,1095.0
1786377323.1774595,-1.013,1.097,8.904,-2.116,0.007,-0.241,34.65,-36.6,54.0,1997.0
1786377323.177484,-2.078,0.797,9.017,-1.52,-0.114,-0.179,33.3,-39.15,52.8,1997.0
1786377323.1774955,-2.078,1.537,8.545,-1.175,-0.335,-0.175,34.65,-40.95,51.75,1997.0
1786377323.3834496,-2.035,0.927,9.045,0.056,-0.133,-0.028,31.05,-41.85,49.05,1896.0
1786377323.383477,-1.595,1.02,9.199,-0.142,-0.173,-0.013,31.2,-40.5,47.4,1942.0
1786377323.383488,-1.307,0.795,9.577,-0.345,-0.115,0.012,31.05,-42.3,49.05,1942.0
1786377323.5902896,-1.741,0.599,9.5,-0.076,-0.098,0.0,31.2,-42.15,46.65,1880.0
1786377323.7920144,-1.319,-1.109,9.321,0.554,0.071,0.112,30.6,-42.6,44.25,1922.0
1786377323.792039,-1.465,-1.42,8.851,1.492,0.017,0.227,31.8,-39.6,44.25,1936.0
1786377323.7920501,-2.265,-1.18,8.665,2.661,-0.175,0.466,35.7,-38.55,43.65,1936.0
1786377323.9971848,-0.464,9.586,6.962,-1.383,0.004,-0.153,39.75,-15.45,71.7,1047.0
1786377323.9972095,-0.611,8.887,6.869,-1.454,0.243,0.015,40.2,-15.75,67.95,1047.0
1786377323.997222,-1.587,7.934,6.831,-1.685,0.35,-0.233,41.55,-17.55,69.6,1047.0
1786377324.201762,-1.061,3.891,8.291,-2.846,0.098,-0.426,35.85,-35.25,57.9,1873.0
1786377324.201786,-1.176,2.914,8.42,-2.68,-0.015,-0.401,36.45,-35.85,57.3,1873.0
1786377324.201797,-0.857,2.636,8.662,-2.521,0.061,-0.381,36.0,-38.25,55.8,1873.0
1786377324.4061246,-1.839,0.158,9.222,-0.429,0.139,0.011,35.7,-42.45,44.4,1913.0
1786377324.4061494,-1.652,0.417,9.074,-0.175,-0.103,-0.022,35.7,-41.7,45.15,1913.0
1786377324.4061604,-1.453,0.378,8.961,-0.232,-0.153,-0.019,35.55,-41.85,45.0,1913.0
1786377324.6107407,-1.614,0.007,9.756,-0.059,0.116,0.038,33.9,-43.65,45.9,1931.0
1786377324.610765,-1.52,0.297,9.598,0.081,-0.042,0.024,33.9,-43.2,44.85,1931.0
1786377324.6107764,-1.25,0.283,9.404,0.086,-0.136,0.005,33.9,-42.45,44.4,1931.0
1786377324.8164575,-1.154,0.117,9.649,-0.263,0.082,-0.041,33.3,-42.3,45.75,1904.0
1786377324.816487,-1.231,-0.12,9.888,-0.156,0.106,0.004,33.45,-42.45,45.9,1904.0
1786377324.8164992,-1.317,-0.086,9.737,-0.084,0.057,0.007,33.6,-42.6,44.7,1904.0
1786377325.0213253,-1.353,-0.397,9.414,-0.559,0.027,-0.018,33.9,-45.15,43.35,1854.0
1786377325.0213501,-1.144,-0.56,9.488,-0.64,0.065,0.014,33.6,-45.0,42.0,1854.0
1786377325.021361,-1.271,-0.893,9.553,-0.601,0.101,0.113,34.2,-43.95,41.55,1854.0
1786377325.2264838,-0.335,3.153,4.884,7.266,-0.504,0.272,39.0,-33.6,57.0,2007.0
1786377325.226507,-0.172,5.523,5.054,5.946,0.227,-0.011,39.3,-28.8,64.2,2007.0
1786377325.226518,-1.48,9.831,7.197,1.975,0.627,-0.684,37.35,-22.5,70.8,2007.0
1786377325.4301305,-1.853,6.723,8.006,-3.043,0.225,-0.506,37.05,-25.2,67.05,1439.0
1786377325.430155,-2.246,6.349,7.92,-3.489,0.166,-0.517,37.05,-30.3,64.8,1439.0
1786377325.430166,-2.607,6.019,7.705,-4.037,0.061,-0.602,37.8,-33.0,62.25,1439.0
1786377325.6347115,-1.652,-2.5,8.279,0.028,-0.165,0.349,34.35,-43.05,31.05,80.0
1786377325.6348107,-1.144,-2.191,7.793,0.011,-0.341,-0.064,34.65,-41.25,32.25,59.0
1786377325.634823,-1.293,-2.607,8.205,-0.012,-0.21,-0.071,33.45,-43.65,32.25,59.0
1786377325.840245,-1.391,-2.1,9.905,0.312,0.002,0.137,34.05,-42.3,33.3,76.0
1786377325.8402808,-1.405,-1.757,9.773,0.305,-0.004,0.088,34.8,-43.05,34.65,76.0
1786377325.8403032,-1.386,-1.757,9.811,0.148,0.014,0.004,34.95,-43.65,34.5,58.0
1786377326.043905,-1.796,-2.531,9.467,-0.12,0.0,0.137,34.35,-44.25,33.9,80.0
1786377326.0439286,-1.633,-2.844,9.347,0.241,-0.079,0.156,33.9,-42.15,33.45,80.0
1786377326.0439398,-1.46,-2.722,8.799,0.658,-0.163,0.112,34.35,-41.1,32.55,70.0
1786377326.248866,-0.036,4.817,5.734,5.29,0.063,0.576,40.05,-33.0,55.65,1922.0
1786377326.2488906,-0.682,4.978,6.211,4.733,0.266,0.311,39.75,-33.15,58.8,1922.0
1786377326.2489016,-0.917,6.34,6.498,4.029,0.281,0.177,39.3,-27.15,63.45,1564.0
1786377326.4546573,-0.362,6.833,8.569,-2.067,0.208,0.512,39.3,-27.9,66.75,1316.0
1786377326.4546824,-0.898,6.268,8.487,-2.042,0.049,0.593,38.1,-29.1,64.8,1316.0
1786377326.4546936,-0.96,5.684,8.475,-1.954,-0.07,0.716,40.5,-30.45,62.55,1884.0
1786377326.6543398,-0.678,2.466,8.241,-0.543,0.266,-0.003,42.45,-36.3,55.8,2064.0
1786377326.665696,-0.678,2.665,8.26,-0.396,0.17,0.035,42.6,-36.45,56.85,2064.0
1786377326.6657193,-0.546,2.825,8.267,-0.317,0.019,0.098,43.2,-36.3,55.05,2042.0
1786377326.86523,-0.005,2.131,8.794,-0.047,0.101,0.077,44.4,-37.95,54.15,2028.0
1786377326.865257,-0.007,2.342,8.866,-0.059,0.154,0.028,44.25,-37.05,54.45,2028.0
1786377326.865275,0.405,2.416,9.404,-0.092,0.26,-0.051,43.5,-37.5,55.05,2028.0
1786377327.06786,-1.621,0.254,9.665,-3.717,0.144,-0.167,46.65,-40.65,42.45,1941.0
1786377327.0678885,-2.454,-1.487,9.749,-3.578,-0.044,-0.097,45.9,-43.5,37.95,1941.0
1786377327.0678997,-2.198,-3.608,9.814,-3.195,-0.338,0.002,45.0,-44.4,36.75,1941.0
1786377327.2726426,-1.037,-3.256,8.612,0.138,-0.068,0.031,45.0,-45.6,27.15,2116.0
1786377327.2726662,-0.785,-3.223,8.717,0.175,-0.014,-0.021,45.45,-45.15,27.45,2110.0
1786377327.2726781,-0.637,-3.536,8.928,0.253,0.151,-0.048,45.45,-46.65,27.9,2110.0
1786377327.4773233,-0.903,-3.244,9.218,0.802,0.011,0.08,45.0,-45.15,29.7,2085.0
1786377327.4773479,-0.795,-2.89,9.299,1.112,0.089,0.141,45.15,-44.25,31.8,2000.0
1786377327.4773588,-0.493,-3.232,9.239,1.686,0.208,0.237,45.15,-43.05,32.55,2000.0
1786377327.6822143,-1.018,6.831,9.677,1.155,0.061,0.136,52.05,-28.5,57.75,2145.0
1786377327.6822379,-0.692,6.402,10.029,0.442,0.042,-0.065,52.05,-27.45,58.5,2145.0
1786377327.6822493,-1.286,6.1,9.991,0.058,-0.007,-0.027,52.8,-25.5,59.55,2145.0
1786377327.8875632,-0.292,3.551,9.122,-2.854,-0.088,-0.367,49.5,-34.35,52.5,2151.0
1786377327.8875883,-0.611,3.268,9.069,-3.22,0.039,-0.465,51.3,-37.05,52.5,2073.0
1786377327.8876002,-0.153,2.607,8.502,-3.851,0.002,-0.738,48.9,-39.9,50.55,2073.0
1786377328.091937,-0.833,-1.039,8.823,0.663,0.446,-0.144,46.65,-44.55,38.7,1934.0
1786377328.0919616,-0.855,-0.548,8.712,0.751,0.435,-0.143,46.65,-42.3,39.9,1889.0
1786377328.0919724,-0.95,-0.297,8.933,0.742,0.489,-0.196,46.35,-41.85,40.95,1889.0
1786377328.2972257,-1.961,0.891,9.912,0.147,0.231,-0.095,44.25,-43.65,46.65,2003.0
1786377328.2972503,-1.956,0.836,9.902,0.139,0.173,-0.049,46.95,-41.25,46.35,2042.0
1786377328.2972615,-1.923,1.185,9.732,-0.013,0.088,-0.082,46.5,-43.2,45.9,2042.0
1786377328.5015264,-1.602,-0.857,9.285,-2.866,-0.374,-0.566,45.45,-44.85,38.25,1979.0
1786377328.5015512,-1.281,-2.136,9.266,-2.918,-0.256,-0.434,43.5,-45.9,32.7,2007.0
1786377328.5015619,-1.403,-3.361,9.735,-2.48,-0.104,-0.268,42.15,-48.0,32.85,2007.0
1786377328.7065675,-1.482,-4.958,8.179,-0.426,0.164,0.063,42.45,-42.9,20.1,65.0
1786377328.706592,-1.465,-4.695,7.939,-0.342,-0.038,0.025,43.65,-42.3,19.65,65.0
1786377328.7066028,-0.864,-5.025,7.781,-0.26,-0.109,-0.01,42.6,-43.8,19.65,36.0
1786377328.9109018,-3.311,5.974,8.317,4.778,0.79,0.027,50.85,-34.5,51.3,2091.0
1786377328.9109266,-2.832,8.092,9.301,3.429,0.441,-0.342,54.0,-33.15,53.25,2091.0
1786377328.9109378,-2.598,7.69,10.017,2.352,0.261,-0.629,54.45,-27.15,57.45,2091.0
1786377329.1162257,-1.575,5.473,7.657,-1.876,-0.39,0.176,52.8,-27.0,60.3,1801.0
1786377329.1162503,-1.628,5.097,7.985,-2.111,-0.216,0.092,53.25,-29.7,59.1,1801.0
1786377329.1162617,-1.76,4.638,8.272,-2.562,-0.073,-0.179,52.5,-28.95,58.05,1801.0
1786377329.320995,-1.884,-4.207,8.452,-2.633,-0.743,-0.267,44.4,-45.3,28.5,2058.0
1786377329.3210196,-1.566,-4.063,8.169,-2.002,-0.691,-0.044,45.6,-43.5,24.75,2058.0
1786377329.321031,-1.537,-4.058,8.045,-1.467,-0.645,0.002,43.5,-42.9,23.1,2058.0
1786377329.5255454,-1.501,-3.232,9.064,0.419,-0.185,0.046,44.85,-44.25,25.8,91.0
1786377329.525583,-1.458,-3.357,9.428,0.396,-0.218,0.003,45.15,-43.8,26.25,91.0
1786377329.5255897,-1.489,-3.402,9.759,0.334,-0.218,-0.006,45.75,-43.65,28.65,91.0
1786377329.7307332,-1.188,-2.974,9.251,-0.254,0.019,0.004,45.75,-42.45,29.7,140.0
1786377329.7307563,-1.128,-3.01,9.115,-0.259,0.091,-0.019,45.0,-43.2,27.15,140.0
1786377329.7307677,-1.178,-3.048,9.117,-0.29,0.12,-0.043,45.9,-42.6,25.8,140.0
1786377329.935555,-1.123,-3.883,8.327,4.554,0.05,0.931,48.3,-42.15,28.2,1987.0
1786377329.9355793,-1.13,-1.903,6.926,5.908,0.049,1.474,50.85,-42.3,33.9,1987.0
1786377329.9355905,-0.886,0.022,5.816,6.65,-0.038,1.773,51.9,-40.35,37.95,1987.0
1786377330.1402824,-1.221,7.271,9.589,-0.109,-0.113,-0.715,53.25,-22.35,61.35,1399.0
1786377330.1403084,-1.585,6.881,8.961,-0.063,0.137,-0.213,53.4,-22.2,61.95,1399.0
1786377330.14032,-1.87,6.883,8.643,-0.447,-0.045,-0.027,54.0,-23.85,62.55,1399.0
1786377330.3442183,-1.276,3.558,8.31,-3.15,-0.102,-0.401,51.15,-34.5,53.85,2121.0
1786377330.3442423,-1.554,2.368,8.868,-3.119,-0.125,-0.393,49.8,-36.6,51.0,2121.0
1786377330.3442538,-1.719,1.896,8.751,-3.349,-0.285,-0.41,48.9,-37.65,49.8,2121.0
1786377330.5502481,-0.752,-3.4,9.4,-0.858,0.163,-0.012,46.35,-45.75,29.85,2006.0
1786377330.5502925,-0.871,-3.141,9.036,-0.559,0.11,0.028,45.6,-43.05,28.8,2006.0
1786377330.5503042,-1.137,-2.988,8.578,-0.463,-0.011,-0.039,46.35,-44.25,29.25,2006.0
1786377330.7548668,-0.749,-3.809,9.445,-0.188,-0.019,0.049,44.25,-45.9,27.45,134.0
1786377330.754892,-0.828,-3.694,9.359,-0.048,0.036,0.015,43.35,-44.25,27.0,134.0
1786377330.754903,-1.02,-3.8,9.457,0.08,0.09,0.006,44.7,-45.6,25.65,134.0
1786377330.9589775,-0.893,-3.804,9.292,-0.051,0.117,-0.037,44.1,-44.55,27.0,107.0
1786377330.9590023,-1.032,-3.855,9.318,0.146,0.13,0.017,43.65,-46.5,26.25,107.0
1786377330.9590135,-0.927,-3.929,9.203,0.377,0.135,0.055,45.0,-45.15,26.85,107.0
1786377331.1638231,-1.688,1.106,5.107,7.046,-0.39,0.932,48.9,-40.35,46.05,1942.0
1786377331.1638477,-0.728,3.67,5.219,6.667,-0.139,0.98,49.35,-35.25,56.4,1942.0
1786377331.1638587,-1.25,6.002,6.512,5.379,0.183,0.716,48.6,-32.25,58.2,1942.0
1786377331.369998,-1.839,7.137,7.432,-1.045,-0.096,0.197,54.45,-24.15,63.75,950.0
1786377331.3700233,-1.475,6.68,7.266,-1.6,-0.112,0.052,54.45,-22.2,64.2,950.0
1786377331.3700347,-1.511,6.354,7.293,-1.945,-0.049,0.012,54.3,-25.5,61.8,950.0
1786377331.573083,-1.915,2.059,8.612,-4.376,-0.357,-0.448,49.8,-42.45,48.15,2079.0
1786377331.5731075,-1.59,1.314,9.34,-4.146,-0.506,-0.434,48.15,-43.5,44.7,2079.0
1786377331.573119,-0.4,-1.14,9.804,-3.586,-0.546,-0.442,48.3,-41.7,41.85,2079.0
1786377331.777403,-0.227,-2.404,8.119,0.154,-0.279,0.048,46.35,-44.55,32.55,1995.0
1786377331.7774262,-0.23,-2.456,8.614,0.121,-0.029,0.047,46.35,-45.3,32.55,1995.0
1786377331.7774372,-0.168,-2.763,9.206,0.302,0.12,0.01,45.6,-45.0,31.05,1995.0
1786377331.9837909,-0.876,-2.334,10.147,0.154,0.025,0.014,46.95,-45.15,34.2,1986.0
1786377331.9838161,-0.888,-2.049,9.989,0.257,0.002,0.031,46.5,-44.85,34.5,1958.0
1786377332.187983,-1.18,-2.749,9.459,0.96,0.073,0.125,46.65,-42.6,34.35,1981.0
1786377332.1880083,-1.204,-2.933,9.546,1.896,0.015,0.274,47.7,-44.85,34.5,1927.0
1786377332.1880198,-1.25,-3.622,9.088,3.537,-0.012,0.639,48.3,-44.4,37.05,1927.0
1786377332.39259,-0.414,10.063,9.704,-0.154,-0.188,-0.75,51.9,-22.2,66.75,2168.0
1786377332.3926146,-0.065,8.83,9.984,-0.345,-0.175,-0.702,52.05,-22.8,64.35,1421.0
1786377332.3926256,-0.168,7.578,9.749,-0.376,-0.025,-0.359,51.9,-21.45,64.5,1421.0
1786377332.5969093,-0.728,4.314,7.731,-1.957,0.07,-0.682,51.3,-28.95,60.6,1749.0
1786377332.596934,-1.209,4.547,7.738,-2.079,0.173,-0.894,51.15,-31.05,59.4,1749.0
1786377332.596945,-0.929,4.113,8.145,-2.373,0.238,-1.101,48.6,-32.25,58.95,2169.0
1786377332.8027816,-1.52,0.01,8.971,-1.4,-0.279,-0.708,41.1,-43.8,43.95,2063.0
1786377332.8028066,-1.434,-0.383,9.261,-1.085,-0.309,-0.623,41.85,-43.5,44.25,2063.0
1786377332.8028176,-0.529,-0.737,9.436,-0.815,-0.135,-0.518,40.05,-44.25,42.0,1987.0
1786377333.0142076,-0.862,-0.115,9.847,0.033,0.069,-0.17,38.25,-44.85,41.55,1983.0
1786377333.0142322,-1.573,0.12,9.708,-0.296,0.089,-0.27,38.85,-45.0,42.0,1983.0
1786377333.014243,-1.573,0.117,9.742,-0.533,0.112,-0.265,37.5,-43.65,41.55,1996.0
1786377333.217681,-1.513,-1.496,10.008,-1.083,0.234,-0.366,35.55,-46.2,34.65,1989.0
1786377333.2177055,-2.16,-1.82,9.673,-0.925,0.137,-0.406,35.4,-46.65,35.25,1989.0
1786377333.217717,-1.714,-1.669,9.206,-0.975,0.167,-0.318,35.55,-46.2,35.85,1989.0
1786377333.4157417,-1.623,-4.123,8.803,0.987,-0.16,0.517,34.65,-48.3,29.7,2015.0
1786377333.4157658,-1.171,-4.621,8.792,1.965,-0.088,0.734,33.15,-45.6,30.15,2015.0
1786377333.4157765,-2.016,-4.712,8.76,3.346,-0.133,0.936,35.4,-46.65,30.9,2015.0
1786377333.6207755,0.488,8.775,9.534,2.256,-0.041,0.225,42.0,-28.95,63.6,2132.0
1786377333.6208003,-0.244,8.155,9.608,1.015,0.182,-0.227,43.35,-24.9,65.25,2132.0
1786377333.6208117,-1.02,7.913,9.316,0.306,0.131,-0.37,44.1,-25.2,66.0,2132.0
1786377333.8251088,-2.061,3.51,8.566,-3.418,0.0,-1.086,41.85,-39.6,56.4,2136.0
1786377333.8251324,-0.941,2.116,8.602,-3.631,-0.041,-0.999,39.3,-40.65,53.4,2136.0
1786377333.8251438,-2.009,1.381,9.218,-3.696,0.082,-0.884,40.2,-41.7,51.0,2136.0
1786377334.030582,-2.025,-2.643,8.851,-1.37,-0.005,-0.355,33.3,-47.7,31.35,167.0
1786377334.0306075,-0.517,-3.938,9.163,-1.193,0.173,-0.279,34.2,-49.05,28.95,167.0
1786377334.030619,-1.614,-3.642,9.232,-0.786,0.288,-0.246,33.6,-48.0,29.25,167.0
1786377334.2362049,-1.477,-3.541,9.278,0.31,0.031,0.073,32.7,-49.05,27.45,53.0
1786377334.2362294,-1.408,-3.371,8.997,0.173,-0.02,0.026,32.4,-46.65,28.2,79.0
1786377334.2362406,-1.331,-3.041,9.024,-0.003,-0.015,0.02,34.8,-47.7,28.5,79.0
1786377334.4395728,-1.511,-3.531,9.407,0.087,0.081,0.06,34.05,-47.25,28.8,82.0
1786377334.439597,-1.499,-3.261,9.105,0.168,0.031,0.101,33.3,-46.2,29.55,78.0
1786377334.4396029,-1.346,-3.139,8.926,0.119,-0.011,0.077,32.85,-46.95,29.55,78.0
1786377334.6451013,-2.466,0.807,4.276,6.899,0.777,1.478,41.25,-41.7,46.35,1933.0
1786377334.645126,-2.646,1.432,5.179,7.113,0.218,1.348,40.5,-39.75,49.65,2152.0
1786377334.6451368,-3.247,3.888,4.671,6.576,-0.115,1.335,41.7,-34.35,59.1,2152.0
1786377334.8501494,-2.339,8.064,7.623,-0.42,-0.145,0.657,43.95,-21.15,68.4,1341.0
1786377334.8501744,-1.353,7.975,7.381,-0.847,-0.275,0.481,45.9,-22.5,66.0,1403.0
1786377334.8501859,-1.381,7.436,7.36,-1.275,-0.087,0.281,44.4,-21.75,65.55,1403.0
1786377335.0542939,-2.509,3.534,8.267,-3.951,0.031,-0.888,43.35,-38.4,55.65,2050.0
1786377335.054319,-1.688,2.576,8.54,-4.092,-0.065,-0.81,41.85,-41.1,50.85,2091.0
1786377335.05433,-2.205,0.728,8.892,-4.077,-0.139,-0.79,40.05,-43.8,50.1,2091.0
1786377335.2593195,-2.121,-2.5,8.289,0.182,-0.096,0.157,38.25,-46.65,32.7,1998.0
1786377335.2593443,-1.772,-1.817,8.054,0.193,-0.407,0.024,39.0,-46.35,33.75,1998.0
1786377335.2593555,-1.348,-1.939,8.284,0.126,-0.267,0.137,39.6,-46.5,34.35,1972.0
1786377335.463787,-1.618,-1.599,9.448,0.155,-0.034,0.025,39.0,-46.65,37.8,2004.0
1786377335.4638119,-1.516,-1.319,9.515,-0.061,-0.056,-0.037,39.75,-46.35,34.95,2004.0
1786377335.463823,-1.417,-1.496,9.637,-0.225,0.015,-0.028,39.75,-47.1,35.55,2004.0
1786377335.6696143,-1.573,-3.792,8.792,3.763,0.417,0.837,42.15,-43.5,35.85,1983.0
1786377335.6696382,-2.037,-2.133,7.254,5.442,0.29,1.347,46.2,-41.7,40.05,1983.0
1786377335.6696496,-1.391,0.292,4.721,6.737,0.241,1.575,45.75,-40.95,42.6,1983.0
1786377335.8733056,-1.221,8.473,9.141,-0.352,-0.117,-0.333,47.4,-19.05,67.05,1054.0
1786377335.8733294,-1.65,7.997,8.432,-0.077,0.114,0.063,48.9,-18.75,67.8,1054.0
1786377335.8733616,-2.219,8.119,7.728,-0.082,0.185,0.262,48.75,-20.4,67.65,1054.0
1786377336.0780165,-2.105,5.562,7.592,-2.663,0.416,-0.915,45.15,-30.6,64.5,1716.0
1786377336.0780413,-2.033,5.315,7.915,-3.019,0.347,-0.974,45.0,-32.4,61.8,1716.0
1786377336.0780528,-2.284,4.314,8.756,-3.396,0.267,-1.003,45.9,-35.25,59.7,1716.0
1786377336.2836006,-1.913,-1.812,9.388,-1.909,-0.649,-0.132,40.35,-44.25,38.7,2035.0
1786377336.2836337,-1.542,-1.911,9.074,-1.198,-0.568,-0.029,40.05,-46.95,36.9,2035.0
1786377336.2836404,-1.257,-2.085,8.607,-0.72,-0.428,-0.001,38.1,-48.0,36.15,2035.0
1786377336.4876535,-1.733,-1.465,9.606,0.284,0.008,0.049,39.0,-49.5,36.75,1996.0
1786377336.4876778,-1.798,-1.355,9.79,0.272,0.01,0.064,39.0,-47.85,37.8,1996.0
1786377336.4876888,-1.626,-1.511,9.941,0.278,0.011,0.059,38.1,-47.25,37.95,1996.0
1786377336.6925783,-1.616,-1.032,9.814,-0.113,0.035,0.013,38.1,-46.2,38.7,2002.0
1786377336.6926033,-1.755,-0.891,9.565,-0.12,0.001,-0.002,38.85,-46.2,39.15,1989.0
1786377336.6926148,-1.674,-0.891,9.448,-0.23,-0.029,-0.037,38.85,-45.0,38.4,1989.0
1786377336.8964982,-2.246,-2.095,7.879,4.447,0.305,0.898,44.1,-42.6,40.2,2011.0
1786377336.8965225,-1.693,-0.67,6.57,5.846,0.345,1.511,44.85,-40.65,40.65,2087.0
1786377336.8965347,-1.058,1.152,5.267,6.495,0.076,1.894,48.0,-38.55,48.15,2087.0
1786377337.1043425,-2.586,6.989,7.858,-1.999,0.109,-0.402,46.65,-25.2,65.55,1117.0
1786377337.1043684,-1.805,6.218,7.434,-2.478,-0.106,-0.446,47.1,-27.9,65.55,1117.0
1786377337.1043794,-1.949,5.322,7.142,-2.738,-0.086,-0.455,48.15,-29.55,64.8,1117.0
1786377337.306719,-1.518,-0.218,8.724,-3.177,-0.293,-0.453,42.9,-43.5,46.05,2063.0
1786377337.3067436,-1.484,-1.046,9.594,-2.791,-0.291,-0.283,41.85,-43.8,44.7,2063.0
1786377337.3067544,-1.659,-1.609,9.828,-2.148,-0.436,-0.122,42.6,-45.0,39.9,2063.0
1786377337.5115128,-1.118,-1.252,9.615,0.203,0.077,0.079,40.35,-46.95,39.15,1968.0
1786377337.5115383,-1.235,-1.334,9.582,0.255,0.024,-0.012,42.15,-46.95,37.95,1968.0
1786377337.5115492,-1.326,-1.037,9.395,0.172,-0.003,-0.08,40.5,-46.65,39.3,1968.0
1786377337.7156932,-1.034,-1.247,9.56,-0.051,0.138,-0.098,39.75,-47.1,39.6,1991.0
1786377337.7157176,-1.147,-1.547,9.522,0.115,0.214,-0.045,39.6,-46.5,39.9,1991.0
1786377337.7157297,-1.199,-1.64,9.369,0.384,0.269,0.024,40.5,-45.9,39.6,1991.0
1786377337.9210713,-1.238,2.926,5.827,6.278,-0.372,1.59,46.65,-37.2,55.35,2077.0
1786377337.9210956,-0.725,3.692,5.717,6.34,-0.4,1.413,46.5,-34.35,58.8,2077.0
1786377337.921107,0.022,6.381,5.78,5.781,-0.134,1.397,46.2,-31.65,64.65,2077.0
1786377338.1256368,-1.867,7.254,7.312,-0.357,0.121,-0.177,52.5,-18.9,67.2,971.0
1786377338.1256626,-1.724,7.489,6.835,-0.659,-0.073,-0.143,51.9,-19.8,66.3,971.0
1786377338.1256735,-1.41,6.986,6.56,-1.02,-0.143,-0.211,50.55,-19.2,65.4,971.0
1786377338.3306038,-1.966,5.097,8.282,-3.303,0.135,-1.099,1844.4,115.2,6.6,2141.0
1786377338.3306289,-2.433,3.584,8.808,-3.449,0.013,-1.049,45.0,-37.8,57.0,2141.0
1786377338.3306398,-2.428,2.77,8.957,-3.602,-0.239,-1.008,44.85,-40.35,54.9,2141.0
1786377338.5354683,-1.274,-1.506,8.851,-0.129,-0.318,0.172,40.5,-47.1,37.8,1994.0
1786377338.5354927,-1.367,-1.013,8.313,0.012,-0.369,0.127,40.8,-48.0,39.15,1994.0
1786377338.5355036,-0.917,-0.907,8.243,-0.015,-0.262,0.098,41.25,-46.65,38.25,1994.0
1786377338.7409863,-1.307,-0.622,9.996,0.01,0.069,-0.006,40.35,-47.7,42.0,1979.0
1786377338.7410116,-1.31,-0.599,9.677,-0.122,0.098,0.005,41.25,-46.35,43.65,1979.0
1786377338.7410233,-1.214,-0.828,9.67,-0.047,0.146,0.073,40.05,-46.95,41.7,1998.0
1786377338.9441843,-2.246,3.654,4.915,6.387,-0.37,1.372,48.3,-33.15,59.85,2075.0
1786377338.9442093,-1.635,4.913,5.219,5.82,-0.471,1.189,47.85,-32.25,60.75,2075.0
1786377338.9442215,-0.335,6.926,6.342,4.736,-0.187,1.099,48.0,-24.75,66.9,1157.0
1786377339.1497293,-1.609,7.558,6.812,-1.271,-0.183,-0.152,49.5,-20.4,69.45,908.0
1786377339.1497543,-1.065,6.883,6.579,-1.808,-0.045,-0.464,48.9,-22.2,67.05,908.0
1786377339.1497655,-1.159,6.553,6.682,-2.254,0.054,-0.717,47.4,-24.9,65.55,1089.0
1786377339.354377,-3.043,-0.532,9.986,-2.806,-0.279,-0.293,43.5,-44.85,46.65,2205.0
1786377339.354502,-2.99,0.101,9.258,-2.176,-0.767,-0.196,42.9,-43.5,42.6,2205.0
1786377339.354514,-1.52,-1.015,8.61,-1.683,-0.797,-0.082,41.55,-45.75,41.7,2027.0
1786377339.559108,-1.42,-1.231,9.562,-0.011,0.006,0.076,41.25,-45.6,38.25,1995.0
1786377339.5591328,-1.738,-1.267,9.747,0.127,0.047,0.086,40.5,-46.35,39.0,1995.0
1786377339.559144,-1.719,-1.094,9.685,0.259,-0.012,0.052,40.8,-46.5,39.9,1998.0
1786377339.763898,-1.489,-0.527,9.644,-0.134,0.001,-0.062,39.3,-46.2,41.7,1994.0
1786377339.7639225,-1.322,-0.582,9.646,-0.192,0.012,-0.044,40.35,-46.5,40.65,1994.0
1786377339.763934,-1.298,-0.816,9.728,-0.159,0.029,-0.033,40.5,-44.85,39.3,1997.0
1786377339.9700139,-1.279,-1.334,9.38,-0.031,0.172,-0.08,40.5,-46.35,40.35,1979.0
1786377339.9700398,-1.465,-1.374,9.426,0.319,0.178,0.002,39.6,-46.95,42.45,1979.0
1786377339.9700508,-1.489,-1.444,9.436,0.652,0.119,0.069,40.05,-46.5,39.45,1979.0
1786377340.1737506,-0.124,6.764,4.752,6.628,-0.184,1.498,45.9,-27.15,64.8,2185.0
1786377340.1737752,-0.388,10.511,6.127,3.913,0.17,0.845,47.7,-21.6,70.65,2185.0
1786377340.173786,0.725,13.429,7.738,1.074,0.817,-0.034,47.85,-18.75,70.8,2185.0
1786377340.377505,-1.329,5.509,7.07,-3.149,-0.271,-0.524,49.8,-28.2,62.85,929.0
1786377340.377529,-1.279,5.406,7.365,-3.461,-0.32,-0.866,50.1,-30.3,61.95,2148.0
1786377340.3775399,-0.46,4.963,6.716,-3.961,-0.189,-1.164,47.25,-31.95,60.6,2148.0
1786377340.583794,-1.369,-2.03,9.29,-1.143,-0.151,-0.054,39.75,-47.1,40.05,2031.0
1786377340.5838187,-1.331,-1.913,9.278,-0.044,-0.225,0.332,42.0,-45.15,39.6,2007.0
1786377340.58383,-1.573,-0.745,8.598,0.153,-0.523,0.099,42.9,-46.2,38.4,2007.0
1786377340.7879395,-1.563,-0.601,10.056,-0.08,-0.071,-0.041,40.35,-46.5,40.2,1997.0
1786377340.7879636,-1.58,-0.761,10.223,-0.033,-0.003,-0.004,41.85,-45.3,42.45,1997.0
1786377340.787975,-1.489,-0.431,10.123,0.08,0.029,0.001,40.8,-48.0,40.95,1997.0
1786377340.9920225,-1.262,-1.159,9.246,0.336,0.034,0.108,40.8,-46.95,41.25,2009.0
1786377340.9920468,-1.267,-1.233,9.062,0.652,0.059,0.145,41.7,-45.9,40.35,1983.0
1786377340.9920585,-1.025,-1.523,9.072,1.309,0.136,0.187,42.9,-46.5,40.95,1983.0
1786377341.1976638,0.46,10.86,6.189,3.543,0.118,0.954,47.4,-17.55,71.55,2173.0
1786377341.1976888,0.84,13.91,7.822,0.229,0.527,-0.423,48.75,-15.45,71.7,1122.0
1786377341.1977,-1.322,13.465,8.124,-0.693,0.112,-1.06,50.85,-16.8,70.05,1122.0
1786377341.4015713,-1.549,6.414,6.191,-2.114,-0.123,-0.508,50.85,-22.95,67.5,955.0
1786377341.4015956,-1.25,6.158,6.244,-2.337,-0.109,-0.672,49.5,-23.1,65.85,1311.0
1786377341.4016068,-1.164,5.531,6.237,-2.638,-0.018,-0.787,49.05,-28.2,64.65,1311.0
1786377341.6068964,-0.551,1.034,9.567,-3.214,-0.813,-0.456,43.5,-42.15,49.65,2198.0
1786377341.6069221,-0.22,-0.28,9.744,-2.613,-0.596,-0.266,42.6,-43.8,45.3,2023.0
1786377341.6069338,-0.797,-0.575,10.063,-1.987,-0.476,-0.07,42.45,-43.95,41.55,2023.0
1786377341.8111148,-1.008,-0.788,9.33,-0.179,0.122,-0.06,43.35,-45.75,39.9,1986.0
1786377341.8111396,-1.492,-1.046,9.51,-0.078,0.195,-0.017,42.75,-43.95,39.0,1986.0
1786377341.8111506,-1.595,-0.759,9.428,0.179,0.052,-0.004,43.2,-45.6,37.5,1962.0
1786377342.0164793,-0.644,-1.367,9.653,0.313,0.219,0.018,42.0,-45.6,40.05,2019.0
1786377342.0165038,-0.678,-1.434,9.306,0.764,0.371,-0.008,42.0,-45.9,40.05,2019.0
1786377342.0165148,-1.429,-1.719,8.698,2.823,0.912,0.247,43.5,-43.2,40.05,2019.0
1786377342.2230868,-1.006,7.75,6.072,3.875,0.047,0.673,47.25,-20.1,68.7,1208.0
1786377342.2231119,-0.821,10.52,6.812,1.679,0.328,-0.087,48.6,-17.1,69.6,1208.0
1786377342.2231228,-1.111,12.756,7.463,0.117,0.088,-0.761,48.9,-16.35,71.85,1208.0
1786377342.4255471,-1.386,7.405,6.065,-1.769,-0.113,-0.169,48.75,-20.4,66.9,1118.0
1786377342.4255707,-1.597,7.204,5.933,-2.013,-0.147,-0.311,47.4,-23.25,67.8,1118.0
1786377342.4255822,-1.202,6.404,6.249,-2.224,-0.053,-0.486,49.35,-22.95,67.05,1118.0
1786377342.6307344,-1.365,2.701,8.954,-2.015,-0.281,-0.422,41.55,-39.15,55.65,2192.0
1786377342.6307592,-0.716,2.337,8.566,-1.861,-0.07,-0.393,40.2,-40.5,53.7,2192.0
1786377342.6307704,-2.078,1.432,9.189,-1.528,0.0,-0.282,41.55,-41.85,52.05,2192.0
1786377342.8352208,-1.585,0.426,9.182,-0.493,-0.312,0.037,39.0,-45.6,46.35,2056.0
1786377342.8352456,-1.41,0.558,8.997,-0.602,-0.247,0.062,40.5,-45.9,45.9,2056.0
1786377342.835257,-1.53,0.33,9.39,-0.652,-0.195,0.038,41.1,-45.0,46.8,2056.0
1786377343.0398355,-1.549,0.038,9.759,-0.069,0.082,-0.026,37.5,-47.55,44.1,2020.0
1786377343.0398605,-1.65,0.211,9.541,0.016,0.061,-0.029,39.6,-45.3,46.05,2020.0
1786377343.039872,-1.492,0.05,9.479,-0.016,0.002,-0.005,38.7,-45.6,44.1,2020.0
1786377343.2445583,-1.326,-0.146,9.574,-0.521,0.214,-0.151,38.55,-45.3,42.0,2045.0
1786377343.2445827,-1.389,-1.609,9.598,0.111,0.39,0.053,36.75,-45.9,41.55,2046.0
1786377343.2445939,-1.518,-1.836,9.946,1.316,0.283,0.337,39.6,-46.5,40.2,2046.0
1786377343.4494932,-1.252,11.863,6.594,2.657,0.548,0.294,49.65,-17.55,68.25,2177.0
1786377343.449518,-2.332,12.993,7.515,0.577,0.131,-0.399,50.4,-17.1,68.25,1164.0
1786377343.4495294,-0.893,10.975,8.025,-0.533,-0.005,-0.674,50.85,-17.1,66.75,1164.0
1786377343.6543946,-1.238,5.353,7.037,-2.888,0.351,-1.025,47.1,-30.6,61.95,1457.0
1786377343.6545348,-1.216,4.154,7.101,-2.799,0.437,-0.986,47.1,-31.05,58.65,1457.0
1786377343.6545496,-2.595,3.579,8.116,-2.32,0.293,-0.861,46.35,-34.2,56.85,1457.0
1786377343.859068,-2.128,0.819,9.524,-1.622,-0.169,-0.077,40.05,-44.25,44.7,2098.0
1786377343.8590908,-2.164,0.735,9.33,-1.711,-0.369,-0.181,38.85,-43.8,44.25,2098.0
1786377343.8591022,-1.465,0.014,9.294,-1.664,-0.336,-0.137,39.45,-44.4,43.35,2098.0
1786377344.0636327,-1.822,-1.025,9.57,-0.179,-0.074,0.051,39.0,-47.1,39.0,2034.0
1786377344.063657,-1.719,-0.967,9.426,0.199,-0.065,0.096,38.25,-47.55,38.55,2034.0
1786377344.0636683,-1.709,-0.644,9.275,0.1,-0.059,-0.003,38.1,-46.5,40.95,2034.0
1786377344.2690332,-1.551,-0.558,9.606,-0.348,0.017,-0.085,39.0,-47.1,41.1,2023.0
1786377344.269058,-1.702,-1.111,9.962,-0.261,0.123,-0.012,37.5,-47.55,40.05,2023.0
1786377344.269069,-1.923,-0.771,9.555,-0.105,0.096,-0.031,38.85,-46.95,40.2,2023.0
1786377344.4729817,-1.477,-2.509,9.261,4.741,0.363,1.376,42.15,-45.0,39.15,2038.0
1786377344.473005,-1.652,-0.721,7.903,6.105,0.142,1.805,46.65,-39.6,45.3,2038.0
1786377344.473016,-0.797,1.451,5.289,6.753,-0.029,1.793,49.05,-39.0,47.4,2038.0
1786377344.6788032,-1.034,8.538,8.789,-0.901,-0.317,-0.232,53.55,-16.5,66.6,955.0
1786377344.678828,-1.369,7.233,8.43,-0.61,0.011,0.284,53.4,-17.55,68.25,955.0
1786377344.6788387,-2.167,7.506,7.891,-0.69,0.046,0.401,53.55,-19.2,67.95,955.0
1786377344.8808033,-1.676,3.965,7.384,-3.854,0.27,-1.348,46.95,-36.3,57.3,2203.0
1786377344.8808284,-0.886,2.61,7.712,-3.6,0.406,-1.202,44.7,-40.95,54.75,2203.0
1786377344.891887,-2.212,1.12,8.741,-2.903,0.487,-0.945,44.85,-41.1,53.1,2203.0
1786377345.0934305,-1.834,0.038,9.043,-0.033,-0.303,0.18,40.05,-45.75,42.0,2068.0
1786377345.0934553,-1.666,0.29,8.997,-0.148,-0.315,0.092,39.45,-47.1,43.35,2068.0
1786377345.0934665,-1.602,0.05,9.426,-0.219,-0.187,0.04,42.0,-47.1,43.35,2068.0
1786377345.292185,-1.856,0.249,9.548,-0.128,0.06,-0.102,39.45,-47.85,44.4,2049.0
1786377345.29221,-1.973,-0.206,9.673,-0.116,0.127,-0.011,41.1,-47.25,43.95,2095.0
1786377345.2922208,-2.073,-0.259,9.687,0.177,0.098,0.081,39.0,-47.55,43.65,2095.0
1786377345.4973247,-1.829,0.433,7.767,4.442,-0.005,1.472,43.65,-41.85,51.3,2068.0
1786377345.49735,-1.544,1.417,6.893,5.246,-0.328,1.666,43.65,-40.35,54.15,2068.0
1786377345.4973605,-1.152,3.385,5.181,5.569,-0.674,1.647,43.95,-37.5,59.85,2151.0
1786377345.7021773,-0.682,7.932,8.231,-0.91,0.018,-0.162,53.25,-17.7,69.9,1088.0
1786377345.7022023,-1.676,7.798,7.989,-1.206,-0.079,-0.351,53.55,-19.2,69.15,1088.0
1786377345.7022133,-1.341,8.124,7.702,-1.772,-0.062,-0.631,53.25,-19.2,68.7,1231.0
1786377345.90704,-1.86,2.658,8.387,-2.683,-0.319,-0.799,44.7,-41.7,52.2,2169.0
1786377345.9070644,-1.125,1.709,8.301,-2.584,-0.441,-0.811,44.7,-42.15,52.2,2169.0
1786377345.9070756,-0.998,0.766,8.394,-2.237,-0.155,-0.567,42.6,-43.5,52.35,2077.0
1786377346.1114004,-1.405,0.254,9.309,-0.061,-0.13,-0.03,40.5,-47.85,46.35,2059.0
1786377346.1116,-1.317,0.208,9.378,-0.153,-0.076,0.034,40.05,-46.95,46.5,2059.0
1786377346.1116686,-1.348,0.105,9.582,-0.202,-0.036,0.046,39.3,-47.25,45.0,2042.0
1786377346.3166049,-1.463,0.283,9.512,-0.014,-0.019,-0.013,40.2,-46.35,45.6,2010.0
1786377346.3166246,-1.379,0.283,9.57,-0.12,-0.009,-0.055,39.3,-46.5,46.5,2010.0
1786377346.316631,-1.36,0.251,9.627,-0.212,0.04,-0.082,39.75,-46.35,45.6,2056.0
1786377346.518786,-1.657,-0.792,9.553,0.142,0.122,0.055,38.55,-48.0,43.5,1989.0
1786377346.5188112,-1.389,-1.089,9.285,0.656,0.143,0.165,37.8,-47.7,43.95,1989.0
1786377346.5296915,-1.3,-0.996,9.244,1.262,0.146,0.216,41.55,-45.75,43.2,2022.0
1786377346.725591,-1.168,5.523,5.322,5.2,-0.105,0.908,43.65,-28.35,67.05,2198.0
1786377346.7256148,-0.776,8.131,6.005,3.528,0.238,0.622,43.95,-26.25,71.25,2198.0
1786377346.7256262,-1.508,10.654,6.883,1.446,0.377,0.07,45.0,-22.35,73.2,2198.0
1786377346.9308858,-1.432,4.626,6.699,-4.541,0.064,-1.135,42.45,-37.5,62.55,1299.0
1786377346.9309103,-2.246,3.144,7.645,-4.655,0.002,-1.214,40.35,-40.35,59.4,2202.0
1786377346.9309223,-2.703,3.651,8.001,-4.305,-0.256,-0.836,39.45,-43.2,56.25,2202.0
1786377347.13578,-2.04,-1.132,9.11,0.209,0.01,0.02,36.75,-47.85,41.1,2026.0
1786377347.1358035,-2.294,-0.831,9.153,0.298,-0.134,0.072,35.85,-49.65,40.95,2026.0
1786377347.135815,-1.932,-0.776,9.426,0.301,-0.203,0.127,37.2,-49.5,40.8,2026.0
1786377347.3457723,-1.963,-0.218,9.661,0.028,-0.043,0.029,36.0,-47.55,44.4,2046.0
1786377347.3457963,-1.76,-0.412,9.685,0.048,-0.003,0.051,37.8,-49.2,44.7,2046.0
1786377347.3458076,-1.765,-0.194,9.579,0.076,0.029,0.019,35.85,-49.65,43.2,2046.0
1786377347.5448287,-1.829,-0.311,9.57,-0.434,0.011,-0.19,36.3,-48.0,42.75,2027.0
1786377347.5448523,-1.788,-0.685,9.73,-0.55,0.13,-0.201,37.35,-48.45,43.2,2027.0
1786377347.5448632,-1.709,-0.929,9.756,-0.425,0.178,-0.154,36.0,-49.5,41.85,2027.0
1786377347.7558072,-1.365,-1.276,7.611,5.248,0.217,1.771,47.1,-39.9,45.3,2039.0
1786377347.7558315,-0.735,0.23,6.409,6.122,0.024,1.842,46.2,-37.5,51.45,2171.0
1786377347.755843,-0.697,3.215,4.307,6.689,-0.179,1.711,46.95,-36.3,54.0,2171.0
1786377347.954758,-1.834,8.703,8.162,-1.264,-0.001,-0.39,46.65,-19.05,70.05,1174.0
1786377347.9547827,-2.289,8.028,7.836,-1.221,0.045,-0.238,48.15,-21.75,69.3,1186.0
1786377347.954794,-2.322,8.159,7.429,-1.655,-0.095,-0.478,47.25,-21.9,69.9,1186.0
1786377348.1587915,-2.224,3.187,8.102,-3.044,-0.197,-0.741,41.7,-40.2,58.05,1682.0
1786377348.1588147,-2.263,2.878,8.126,-2.987,-0.456,-0.808,40.05,-40.35,54.9,2171.0
1786377348.1588254,-1.566,1.528,8.131,-2.752,-0.265,-0.596,41.7,-42.9,54.0,2171.0
1786377348.363877,-1.616,-0.077,9.153,-0.136,-0.102,0.087,38.7,-46.35,45.9,2096.0
1786377348.3639019,-1.836,-0.022,9.29,0.123,-0.13,0.116,37.2,-46.35,44.85,2096.0
1786377348.363914,-1.856,0.453,9.175,0.152,-0.184,0.054,38.55,-45.0,47.25,2070.0
1786377348.568966,-1.592,-0.306,9.249,1.364,0.321,0.277,38.1,-46.5,49.05,2050.0
1786377348.5689905,-1.709,-0.129,8.942,2.216,0.407,0.428,39.45,-45.6,50.4,2050.0
1786377348.5690014,-1.887,0.113,8.423,3.221,0.432,0.632,39.75,-42.15,50.7,2050.0
1786377348.7736883,-0.63,12.285,7.333,0.88,0.143,0.259,49.5,-14.25,72.45,1201.0
1786377348.7737129,-1.3,11.372,7.47,-0.311,-0.081,-0.421,49.65,-13.65,72.6,1201.0
1786377348.773724,-0.783,9.438,7.599,-0.613,-0.147,-0.595,49.8,-14.55,72.0,1201.0
1786377348.9785483,-1.853,6.563,6.515,-2.65,0.072,-0.746,46.5,-25.8,68.4,1299.0
1786377348.9785728,-1.523,5.49,6.524,-2.768,0.106,-0.712,44.4,-28.8,66.0,1299.0
1786377348.9785836,-2.009,5.236,6.871,-2.86,0.125,-0.706,44.4,-31.05,64.8,1299.0
1786377349.1828747,-1.779,1.477,8.945,-1.502,-0.216,-0.19,39.75,-44.4,50.7,2133.0
1786377349.1828995,-1.595,1.056,9.301,-1.263,-0.121,-0.08,39.0,-43.95,49.95,2133.0
1786377349.1829107,-1.528,0.646,9.421,-0.78,-0.057,0.036,40.5,-43.95,49.95,2133.0
1786377349.38783,-1.939,0.498,9.574,0.147,-0.065,0.149,37.35,-46.2,46.5,2048.0
1786377349.3878548,-1.887,0.771,9.196,0.024,-0.129,0.131,40.5,-44.4,48.45,2048.0
1786377349.3878663,-1.65,0.675,9.29,-0.181,-0.148,0.131,40.2,-44.4,47.4,2048.0
1786377349.5936186,-1.887,0.431,9.586,-0.296,0.087,-0.037,39.6,-46.2,48.0,2079.0
1786377349.5936432,-1.877,0.383,9.546,-0.279,0.036,-0.054,40.05,-46.2,47.55,2079.0
1786377349.5936546,-1.882,0.508,9.385,-0.357,-0.022,-0.095,38.7,-45.6,46.65,2079.0
1786377349.797257,-1.018,-0.711,7.487,3.893,0.149,0.907,44.4,-41.55,43.5,2090.0
1786377349.7972925,-1.147,2.057,5.119,5.59,0.263,1.393,-497.85,-3740.25,-0.15,2090.0
1786377349.7973044,-1.549,3.857,4.12,6.401,-0.368,1.595,49.5,-35.55,52.5,2090.0
1786377350.0025403,-1.405,9.764,8.808,-1.109,-0.011,-0.948,47.4,-19.8,69.6,1343.0
1786377350.0025654,-0.965,7.755,8.82,-0.941,0.256,-0.575,46.5,-21.6,69.45,1222.0
1786377350.0025768,-1.595,6.553,8.576,-0.721,0.444,-0.274,47.25,-21.9,70.2,1222.0
1786377350.20661,-2.634,2.761,8.447,-2.648,0.27,-0.963,40.35,-41.1,57.45,2202.0
1786377350.2066426,-2.739,2.806,8.499,-2.205,0.246,-0.722,40.2,-43.65,54.0,2202.0
1786377350.4117918,-2.593,0.175,8.76,-0.424,-0.381,0.084,37.05,-47.7,43.95,2105.0
1786377350.4118178,-2.15,-0.096,8.911,-0.573,-0.354,0.148,36.3,-48.9,44.25,2105.0
1786377350.4118288,-2.342,-0.29,9.072,-0.447,-0.409,0.184,36.0,-48.6,45.15,2105.0
1786377350.6165287,-2.222,-0.326,9.584,0.128,-0.086,0.12,37.2,-46.35,43.05,2024.0
1786377350.6165526,-1.896,-0.01,9.316,0.009,-0.121,0.043,35.85,-46.5,44.25,2024.0
1786377350.6165657,-1.779,-0.105,9.4,-0.15,-0.07,0.003,36.6,-49.2,43.5,2024.0
1786377350.8213866,-1.669,-0.816,9.608,0.535,0.264,0.069,36.3,-48.0,43.95,2041.0
1786377350.8214147,-1.82,-0.752,9.388,1.007,0.411,0.142,37.95,-48.3,44.85,2041.0
1786377350.8214254,-2.265,-1.087,9.275,1.787,0.47,0.405,37.05,-47.7,45.3,2041.0
1786377351.0253642,-1.717,10.125,7.649,2.421,0.087,0.374,43.65,-24.9,68.85,1579.0
1786377351.0253885,-1.185,9.838,8.21,0.95,0.04,-0.172,46.5,-20.4,69.45,1579.0
1786377351.0254006,-1.302,9.064,8.339,-0.074,0.059,-0.413,46.2,-20.1,69.15,1579.0
1786377351.2311547,-1.508,6.527,7.099,-1.192,-0.192,0.028,44.25,-27.0,67.65,1328.0
1786377351.2311795,-1.427,6.235,6.9,-1.266,-0.04,-0.088,44.85,-26.1,66.0,1328.0
1786377351.2311904,-1.444,5.971,6.768,-1.308,0.079,-0.239,45.75,-27.0,66.6,1328.0
1786377351.4358091,-2.191,4.305,8.308,-0.959,0.19,-0.296,40.8,-37.2,60.75,2145.0
1786377351.4358337,-2.263,3.654,8.559,-0.828,0.237,-0.172,41.1,-36.45,59.4,2145.0
1786377351.4358456,-3.074,4.053,8.839,-0.755,0.01,-0.163,42.6,-38.85,60.45,2145.0
1786377351.6398664,-2.502,2.959,8.576,-1.029,-0.036,-0.293,40.5,-43.65,57.3,2189.0
1786377351.6398928,-2.698,2.636,8.528,-1.216,-0.028,-0.29,40.05,-42.6,55.35,2189.0
1786377351.6399038,-2.756,2.119,8.892,-1.291,-0.066,-0.308,38.85,-43.05,54.9,2189.0
1786377351.8452556,-2.392,-1.532,9.129,-0.41,-0.177,0.016,35.85,-48.0,39.15,2139.0
1786377351.845287,-2.775,-1.398,8.748,-0.133,-0.169,0.112,35.4,-47.85,38.55,1997.0
1786377351.8452985,-2.421,-1.223,8.569,-0.018,-0.192,0.056,34.95,-48.3,39.3,1997.0
1786377352.0505111,-1.391,3.898,5.025,5.499,-0.8,1.619,44.25,-41.7,44.4,2080.0
1786377352.050536,-0.766,3.053,6.093,4.469,-0.403,1.197,43.65,-37.2,52.8,2080.0
1786377352.0505474,0.352,4.214,7.173,3.509,0.162,0.923,43.95,-36.6,56.25,2184.0
1786377352.2541924,-1.575,5.897,8.186,2.838,0.366,0.513,45.75,-33.6,60.3,2184.0
1786377352.2542176,-1.686,6.345,8.638,2.42,0.264,0.351,46.2,-33.6,60.3,2184.0
1786377352.2542288,-1.856,6.488,8.772,2.071,0.258,0.309,48.0,-28.2,60.3,2184.0
1786377352.4613473,-2.234,6.254,8.703,1.514,0.078,0.415,48.3,-28.5,63.15,2184.0
1786377352.4613726,-1.982,6.031,8.557,0.948,-0.027,0.415,47.7,-25.8,64.65,1533.0
1786377352.4613836,-2.121,6.354,8.394,0.404,-0.13,0.367,46.95,-25.8,64.65,1533.0
1786377352.6635184,-2.428,-1.379,8.559,-0.13,-0.119,0.089,37.05,-46.95,37.2,2032.0
1786377352.6635416,-2.653,-1.209,8.607,0.136,-0.127,0.074,38.85,-49.2,37.95,2032.0
1786377352.6635525,-2.538,-0.792,8.583,0.359,-0.166,0.087,39.75,-47.55,39.3,2032.0
1786377352.8678257,-2.48,-1.118,9.926,-0.071,-0.097,0.067,38.55,-48.9,42.0,2024.0
1786377352.8678505,-2.342,-0.886,9.548,0.044,-0.123,0.074,38.1,-48.9,41.25,2024.0
1786377352.8678617,-2.195,-0.668,9.299,-0.021,-0.094,0.038,38.1,-47.25,39.9,2021.0
1786377353.0730004,-2.167,-1.671,9.323,0.177,0.034,0.076,38.85,-48.0,39.9,2005.0
1786377353.0730805,-2.047,-2.014,9.395,0.784,0.042,0.163,39.3,-47.7,39.9,2005.0
1786377353.0730937,-2.471,-1.911,9.103,1.601,-0.028,0.143,40.05,-46.2,39.15,2068.0
1786377353.2780025,-1.214,6.68,5.397,4.92,-0.104,0.972,46.65,-27.9,67.05,2206.0
1786377353.278027,-0.326,9.057,6.792,2.911,0.295,0.53,46.5,-23.1,70.2,2206.0
1786377353.2780385,-1.506,11.013,8.792,0.793,0.385,-0.076,48.0,-20.1,70.2,2206.0
1786377353.4832518,-1.638,2.94,7.688,-3.38,-0.251,-0.692,46.35,-36.9,58.65,2202.0
1786377353.4832878,-0.958,1.985,8.353,-3.389,-0.089,-0.708,42.75,-40.2,55.5,2202.0
1786377353.483299,-2.15,1.719,8.282,-3.177,0.123,-0.698,42.15,-40.65,51.6,2202.0
1786377353.6885247,-1.769,-1.832,9.838,-0.32,0.047,0.085,40.8,-46.95,40.2,1980.0
1786377353.6885495,-1.968,-1.647,9.718,0.094,-0.131,0.156,38.55,-48.9,37.95,1980.0
1786377353.6885607,-2.2,-0.855,9.064,0.088,-0.29,0.08,40.2,-46.35,39.0,1980.0
1786377353.8939366,-1.98,-1.223,9.857,-0.001,0.077,0.014,38.25,-47.1,39.0,1947.0
1786377353.893962,-2.047,-1.204,9.946,0.209,0.015,0.049,40.05,-47.7,37.95,1947.0
1786377353.8939734,-2.076,-0.977,9.728,0.216,-0.068,-0.013,37.95,-48.3,39.6,1947.0
1786377354.0970383,-2.011,-1.808,9.565,2.861,0.229,0.535,43.35,-44.25,40.65,2084.0
1786377354.0970628,-1.578,-1.872,8.325,4.345,0.276,0.945,44.7,-42.9,44.1,2084.0
1786377354.097074,-1.31,-0.63,6.977,5.996,0.35,1.334,45.45,-39.75,47.1,2084.0
1786377354.3026588,-2.241,10.843,7.918,-0.309,-0.155,-1.085,49.65,-14.4,71.1,1630.0
1786377354.3026824,-1.238,9.383,8.195,-0.436,-0.263,-0.945,49.05,-14.55,69.9,1164.0
1786377354.3026934,-1.358,8.095,8.179,-0.231,0.093,-0.437,49.8,-15.75,70.2,1164.0
1786377354.5089853,-1.781,5.942,7.053,-3.254,0.157,-0.632,45.75,-28.5,66.9,1148.0
1786377354.509009,-2.145,5.574,6.996,-3.393,0.089,-0.698,46.35,-29.1,65.25,1148.0
1786377354.5090199,-1.7,3.776,7.369,-3.338,0.144,-0.624,44.7,-33.9,61.05,2155.0
1786377354.713201,-1.152,-0.591,9.479,-0.952,-0.074,0.057,40.5,-45.6,45.15,2137.0
1786377354.7132263,-1.635,-0.771,10.053,-0.296,-0.087,0.212,40.2,-45.6,42.3,2085.0
1786377354.713238,-1.856,-0.503,9.701,0.137,-0.258,0.194,40.95,-45.15,41.85,2085.0
1786377354.9236052,-1.8,0.424,9.625,0.019,-0.038,0.019,39.75,-46.35,45.9,2014.0
1786377354.9236364,-1.63,0.127,9.756,-0.198,0.019,-0.059,42.0,-45.15,45.15,2060.0
1786377355.125842,-1.499,-0.575,9.474,-1.181,0.12,-0.162,40.95,-48.3,41.1,1972.0
1786377355.1258662,-1.475,-1.221,9.989,-1.038,0.112,-0.131,41.1,-46.5,38.7,1972.0
1786377355.1258779,-1.585,-1.341,9.754,-0.824,0.067,-0.14,40.5,-47.55,37.8,1972.0
1786377355.325101,-0.833,-1.03,6.017,6.518,0.14,1.402,47.25,-40.95,44.4,2083.0
1786377355.3251257,-0.994,1.089,3.541,7.459,0.022,1.528,47.7,-40.5,48.15,2083.0
1786377355.3251374,-0.682,2.315,3.721,7.984,-0.346,1.422,47.4,-33.75,58.2,2083.0
1786377355.5312126,-2.169,7.977,8.6,-1.283,0.279,-0.098,51.0,-18.15,69.45,1037.0
1786377355.531237,-2.579,8.595,7.76,-1.654,0.07,-0.053,49.65,-20.25,71.1,1037.0
1786377355.531248,-2.672,7.851,7.329,-2.095,-0.168,-0.137,49.8,-22.35,68.7,1037.0
1786377355.7359874,-2.047,2.442,7.903,-3.59,0.203,-1.012,43.65,-41.1,55.35,2168.0
1786377355.736012,-1.336,1.046,9.0,-3.303,0.322,-0.841,41.55,-44.25,51.3,2168.0
1786377355.736024,-2.365,0.321,9.5,-2.901,0.302,-0.69,42.15,-43.8,49.05,2168.0
1786377355.9403489,-1.652,-2.124,9.369,-0.377,-0.007,0.153,39.75,-48.6,35.55,94.0
1786377355.9403744,-1.932,-1.528,9.041,-0.296,-0.148,0.07,38.7,-49.5,36.3,94.0
1786377355.9403856,-1.86,-1.599,9.146,-0.336,-0.202,-0.022,40.05,-48.9,36.6,94.0
1786377356.145201,-1.875,-2.057,9.534,0.123,0.012,0.095,39.6,-49.8,37.5,90.0
1786377356.145226,-1.915,-2.174,9.546,0.294,-0.038,0.122,39.0,-47.85,36.75,90.0
1786377356.1452374,-1.736,-1.937,9.333,0.344,-0.104,0.1,38.25,-48.6,0.15,90.0
1786377356.3514042,-0.103,1.027,4.731,7.327,-0.401,1.81,47.1,-40.35,50.1,2104.0
1786377356.3514283,-0.093,3.077,2.847,7.802,-0.451,1.791,47.85,-37.95,54.6,2104.0
1786377356.351439,-1.233,2.959,3.388,8.023,-0.535,1.656,47.7,-30.9,63.15,2104.0
1786377356.5553389,-2.416,8.705,7.915,-1.15,-0.023,-0.055,51.75,-18.9,69.9,962.0
1786377356.5553646,-1.635,8.174,7.219,-1.745,-0.256,-0.223,51.75,-23.55,67.95,962.0
1786377356.5553758,-1.346,7.242,6.95,-2.213,-0.183,-0.262,48.6,-24.45,68.55,962.0
1786377356.7598784,-1.781,-0.883,9.555,-2.574,-0.132,-0.148,43.2,-47.1,43.35,2120.0
1786377356.7599049,-1.113,-1.398,9.488,-1.989,-0.16,-0.065,43.95,-45.6,42.6,2120.0
1786377356.7599158,-0.905,-1.796,9.565,-1.373,-0.138,-0.053,43.65,-45.75,39.45,1932.0
1786377356.9650598,-1.638,-1.393,9.27,0.012,-0.13,0.062,43.2,-47.55,38.25,204.0
1786377356.9650853,-1.575,-1.609,9.505,-0.043,-0.111,0.025,42.15,-47.7,38.7,204.0
1786377356.9650965,-1.695,-1.437,9.689,-0.067,-0.05,-0.03,44.25,-47.85,37.05,219.0
1786377357.172175,-1.824,-1.63,9.649,-0.298,0.092,-0.13,40.8,-48.45,37.65,158.0
1786377357.1721995,-1.796,-2.064,9.493,-0.007,0.089,-0.034,41.25,-48.6,37.5,158.0
1786377357.3741305,-1.255,2.258,3.383,8.524,-0.259,1.277,49.05,-35.1,57.0,2073.0
1786377357.3741548,-1.125,4.154,2.682,8.37,-0.424,1.049,48.3,-28.2,63.6,2073.0
1786377357.3741658,-0.936,8.037,4.365,5.0,0.259,0.637,47.85,-22.5,68.85,2073.0
1786377357.5789642,-2.174,7.915,7.19,-1.963,-0.122,-0.043,47.25,-19.65,70.2,1060.0
1786377357.5789893,-2.26,7.537,6.857,-2.579,-0.304,-0.113,49.5,-21.15,68.7,1060.0
1786377357.5790012,-1.923,6.929,6.639,-3.183,-0.327,-0.235,49.05,-24.3,66.9,1060.0
1786377357.7901256,-1.614,0.91,8.799,-2.591,0.234,-0.709,42.6,-43.5,48.75,2175.0
1786377357.7901506,-1.858,0.51,9.287,-2.225,0.185,-0.704,42.15,-44.25,46.05,2175.0
1786377357.790162,-1.86,-0.558,9.723,-1.741,0.182,-0.452,42.0,-45.9,45.15,2175.0
1786377357.9892464,-1.645,-0.678,9.316,-0.18,-0.205,0.069,39.75,-46.65,40.05,2007.0
1786377357.9892812,-1.647,-0.618,9.345,-0.23,-0.123,0.03,41.7,-45.15,39.6,2007.0
1786377357.9892929,-1.707,-0.797,9.536,-0.317,-0.035,-0.01,40.35,-45.75,39.15,2007.0
1786377358.1941571,-1.834,-1.25,9.558,-0.044,-0.094,-0.006,39.3,-46.5,37.95,1972.0
1786377358.1941824,-1.726,-1.152,9.397,-0.09,-0.083,-0.01,41.1,-46.95,38.7,1972.0
1786377358.1941934,-1.774,-1.231,9.337,-0.135,-0.054,-0.008,38.85,-46.95,40.2,1972.0
1786377358.3982,-1.216,1.709,4.899,6.507,-0.294,1.345,44.85,-40.65,51.3,2045.0
1786377358.3982244,-0.081,3.089,4.827,6.51,-0.128,1.314,45.9,-35.25,57.9,2045.0
1786377358.398237,-1.065,4.288,4.583,5.944,0.054,1.354,46.95,-34.8,60.6,1824.0
1786377358.6042166,-2.049,7.92,8.222,-2.122,-0.072,-0.272,46.65,-24.45,70.05,1221.0
1786377358.6042418,-0.996,6.567,7.901,-2.655,0.042,-0.334,47.1,-26.1,69.3,1548.0
1786377358.6042535,-1.336,6.256,7.616,-3.287,0.151,-0.422,46.2,-29.7,68.4,1548.0
1786377358.8077538,-1.87,-1.779,9.893,-2.724,0.461,-0.467,45.15,-266.85,60.45,2117.0
1786377358.8077812,-1.877,-1.161,9.436,-2.057,0.298,-0.375,45.15,-266.85,60.45,2117.0
1786377358.8077934,-1.901,-1.46,8.78,-1.668,0.069,-0.483,45.15,-266.85,60.45,2117.0
1786377359.0135322,-1.144,-1.863,9.225,0.235,-0.113,0.082,45.15,-266.85,60.45,68.0
1786377359.013557,-1.362,-1.788,9.668,0.394,0.051,0.101,45.15,-266.85,60.45,68.0
1786377359.013568,-1.705,-1.657,9.711,0.541,0.087,0.039,45.15,-266.85,60.45,102.0
1786377359.217712,-1.604,-0.895,9.452,-0.104,0.064,-0.129,45.15,-266.85,60.45,1319.0
1786377359.2177367,-1.542,-1.046,9.452,-0.231,0.074,-0.129,45.15,-266.85,60.45,1319.0
1786377359.2177477,-1.494,-1.561,9.72,-0.228,0.098,-0.121,45.15,-266.85,60.45,1319.0
1786377359.422388,-2.198,3.34,5.138,5.98,0.541,1.281,43.65,-38.85,54.9,2032.0
1786377359.422584,-2.49,3.795,5.842,5.689,0.094,1.24,45.75,-35.85,58.5,2032.0
1786377359.4225922,-2.26,5.164,5.385,5.199,-0.065,1.076,46.5,-30.15,63.9,1489.0
1786377359.627543,-1.942,8.748,7.137,-0.39,-0.135,0.547,50.55,-16.5,70.2,1081.0
1786377359.6275682,-1.774,8.777,6.95,-0.957,-0.095,0.308,50.1,-15.9,69.3,1081.0
1786377359.6275792,-1.595,8.219,6.79,-1.27,-0.014,0.131,50.55,-16.95,69.9,1046.0
1786377359.8325386,-1.12,5.394,7.527,-3.519,-0.114,-0.601,47.85,-31.8,63.0,1510.0
1786377359.8325636,-0.857,3.27,8.231,-3.536,0.115,-0.424,48.0,-35.1,61.35,1510.0
1786377359.832575,-1.741,3.661,8.504,-3.374,0.115,-0.455,47.1,-37.95,56.4,1510.0
1786377360.0366676,-1.595,0.45,8.923,-1.73,-0.219,-0.105,44.1,-43.8,46.05,2159.0
1786377360.0367584,-1.35,0.165,9.146,-1.214,-0.171,-0.069,44.85,-43.8,43.95,2015.0
1786377360.036771,-1.18,-0.079,8.909,-0.891,-0.069,0.016,43.95,-43.2,44.1,2015.0
1786377360.2431,-1.441,-0.074,8.94,-0.71,-0.08,-0.003,43.65,-44.25,43.2,2015.0
1786377360.2431235,-1.223,-0.52,8.971,-0.557,-0.026,-0.003,44.7,-43.65,43.35,2015.0
1786377360.243135,-1.384,-0.366,8.981,-0.422,-0.004,-0.035,43.95,-45.6,41.85,2015.0
1786377360.4468608,-1.348,-0.448,9.017,-0.377,-0.003,-0.037,43.95,-44.85,43.35,2021.0
1786377360.4468856,-1.52,-0.596,9.1,-0.352,-0.029,-0.035,44.85,-44.55,42.0,2021.0
1786377360.4468966,-1.456,-0.644,9.239,-0.352,-0.049,-0.023,42.9,-45.3,41.7,2021.0
1786377360.6510797,-1.051,8.38,8.392,-0.552,0.353,-0.35,52.65,-18.75,68.55,832.0
1786377360.6511059,-2.066,7.717,7.87,-0.613,0.319,-0.077,53.1,-15.9,67.8,832.0
1786377360.6511173,-2.689,7.726,7.436,-1.086,0.024,-0.122,50.85,-19.5,67.5,832.0
1786377360.856608,-1.788,7.058,6.79,-1.825,-0.032,-0.251,51.6,-20.25,68.85,832.0
1786377360.8566272,-2.248,6.737,6.586,-2.359,0.032,-0.248,52.05,-23.1,67.2,832.0
1786377360.8566334,-1.798,6.256,6.8,-2.714,-0.164,-0.357,51.75,-25.05,65.85,924.0
1786377361.0610676,-0.907,1.01,9.929,-0.835,-0.499,0.264,1844.4,0.0,48.0,2127.0
1786377361.061092,-0.658,0.658,10.039,-0.743,-0.275,0.262,1844.4,0.0,48.0,2064.0
1786377361.0611029,-1.037,0.826,9.749,-0.584,-0.12,0.201,1844.4,0.0,48.0,2064.0
1786377361.2657368,-1.669,0.759,8.799,-0.479,0.012,0.034,1844.4,0.0,48.0,2019.0
1786377361.2657616,-1.494,0.596,8.758,-0.516,-0.042,0.015,1844.4,0.0,48.0,2019.0
1786377361.2657723,-1.422,0.627,8.674,-0.602,-0.085,-0.048,1844.4,0.0,48.0,2047.0
1786377361.4704115,-4.642,-0.543,9.586,4.584,-0.117,0.399,1844.4,0.0,48.0,1984.0
1786377361.4704351,-2.732,0.472,7.477,5.688,-0.346,1.081,1844.4,0.0,48.0,1984.0
1786377361.6751518,-0.936,6.175,7.039,-1.022,-0.164,0.031,1844.4,0.0,48.0,1119.0
1786377361.6751766,-0.95,6.151,7.257,-1.278,-0.047,-0.097,1844.4,0.0,48.0,1119.0
1786377361.6751878,-1.302,6.366,7.479,-1.633,0.11,-0.357,1844.4,0.0,48.0,1119.0
1786377361.8803303,-2.018,2.009,9.11,-4.693,0.062,-0.835,1844.4,0.0,48.0,2135.0
1786377361.8803544,-1.427,0.532,9.321,-4.316,0.072,-0.608,1844.4,0.0,48.0,2135.0
1786377361.8803656,-2.413,-0.646,9.598,-3.597,-0.242,-0.427,1844.4,0.0,48.0,2135.0
1786377362.0847702,-2.021,-1.791,8.789,0.135,-0.186,0.081,1844.4,0.0,48.0,1964.0
1786377362.084796,-1.958,-1.721,8.942,0.17,-0.222,0.102,1844.4,0.0,48.0,1964.0
1786377362.0848072,-1.939,-1.879,9.258,0.206,-0.262,0.08,1844.4,0.0,48.0,1964.0
1786377362.2903876,-1.59,-1.638,9.835,-0.192,-0.09,0.011,1844.4,0.0,48.0,1890.0
1786377362.2905762,-1.75,-1.635,9.687,-0.204,-0.096,0.033,1844.4,0.0,48.0,1890.0
1786377362.290585,-1.59,-1.939,9.687,-0.008,-0.11,0.083,1844.4,0.0,48.0,1890.0
1786377362.4946704,0.189,5.246,5.789,5.31,-0.323,0.944,1844.4,0.0,48.0,2183.0
1786377362.4946954,-0.426,8.157,7.3,3.776,-0.04,0.804,1844.4,0.0,48.0,2183.0
1786377362.4947064,-0.405,9.991,8.152,2.105,0.062,0.321,1844.4,0.0,48.0,2183.0
1786377362.6999373,-1.235,8.078,8.152,-2.294,0.015,-0.461,1844.4,0.0,48.0,1321.0
1786377362.6999621,-1.367,6.1,7.724,-3.104,0.074,-0.682,1844.4,0.0,48.0,1321.0
1786377362.699973,-1.75,5.298,7.7,-3.647,0.269,-0.835,1844.4,0.0,48.0,1321.0
1786377362.9037592,-1.132,-0.453,7.887,-1.842,0.009,-0.339,42.0,-45.15,43.65,2011.0
1786377362.9037886,-1.267,-0.745,8.756,-1.512,0.065,-0.345,42.15,-45.75,40.95,2011.0
1786377362.9037998,-1.501,-0.91,9.254,-0.959,0.126,-0.172,41.55,-46.95,39.9,2011.0
1786377363.1078732,-1.755,-0.917,9.785,0.219,-0.045,0.054,42.15,-49.2,39.45,2017.0
1786377363.1078985,-1.793,-0.723,9.694,0.138,-0.059,0.057,40.8,-47.25,41.25,2008.0
1786377363.1079106,-1.678,-0.79,9.682,0.032,-0.04,0.039,40.35,-47.25,40.65,2008.0
1786377363.3152833,-1.623,-1.671,8.104,4.767,0.343,0.71,44.1,-44.25,44.25,2015.0
1786377363.3153293,-1.525,1.274,5.768,6.172,0.326,1.107,45.9,-42.3,48.75,2015.0
1786377363.3153515,-2.1,2.356,4.202,7.01,-0.097,1.407,48.3,-35.85,51.75,2195.0
1786377363.5197701,-2.102,8.21,8.133,-0.743,0.156,0.163,49.35,-20.55,69.6,863.0
1786377363.5197952,-2.646,8.552,7.738,-1.348,-0.153,-0.029,48.15,-21.45,68.55,874.0
1786377363.5198061,-1.346,7.599,7.374,-1.887,-0.021,-0.213,48.75,-21.6,69.45,874.0
1786377363.7235255,-1.824,3.395,7.709,-2.743,0.021,-0.562,45.9,-34.2,58.2,2052.0
1786377363.7235508,-2.27,2.981,7.731,-2.606,-0.068,-0.519,48.3,-36.6,56.25,2052.0
1786377363.7235618,-1.75,2.164,8.207,-2.274,-0.084,-0.438,44.7,-39.3,54.75,2052.0
1786377363.9348214,-1.314,0.512,9.242,-1.183,-0.063,-0.094,43.35,-43.8,45.0,2071.0
1786377363.9348457,-1.798,-0.23,9.68,-0.933,-0.021,-0.09,43.35,-43.8,43.2,2071.0
1786377363.9348567,-1.736,-0.283,9.615,-0.603,-0.116,-0.056,42.6,-45.0,43.5,2071.0
1786377364.1337552,-1.48,-0.922,9.16,-0.404,-0.107,-0.016,41.25,-45.9,39.6,1996.0
1786377364.1337795,-1.367,-0.965,9.304,-0.442,-0.015,-0.024,41.7,-46.65,37.8,1996.0
1786377364.1337905,-1.298,-1.336,9.548,-0.351,0.059,-0.026,41.55,-46.2,39.15,1996.0
1786377364.3383915,-1.506,-1.109,9.682,0.121,0.054,0.025,42.0,-45.9,38.25,1965.0
1786377364.3385901,-1.63,-1.085,9.594,0.099,0.023,0.048,41.1,-46.2,38.4,1965.0
1786377364.338599,-1.597,-1.207,9.625,0.21,0.009,0.093,42.6,-46.2,39.45,1965.0
1786377364.5426333,-1.109,2.049,4.369,7.366,0.087,1.08,50.55,-36.3,51.45,2114.0
1786377364.542658,-2.002,3.606,3.541,7.433,-0.205,0.977,50.1,-31.8,61.5,2114.0
1786377364.5426695,-0.857,6.527,4.741,6.453,0.07,1.014,50.55,-27.45,63.9,2114.0
1786377364.7482104,-3.014,9.266,7.702,-1.24,-0.019,0.037,49.65,-19.8,70.05,799.0
1786377364.7482352,-2.413,8.315,7.326,-1.836,-0.027,-0.194,51.0,-20.85,69.45,799.0
1786377364.7482462,-2.418,7.616,7.034,-2.439,0.022,-0.362,49.65,-24.15,68.25,799.0
1786377364.9530168,-1.58,0.239,9.536,-1.003,-0.096,-0.142,44.25,-45.15,44.4,2132.0
1786377364.9530423,-1.391,0.151,9.261,-0.78,-0.146,-0.15,44.25,-46.35,45.15,2030.0
1786377364.9530535,-1.35,0.031,9.258,-0.741,-0.093,-0.137,43.35,-45.75,44.7,2030.0
1786377365.157239,-1.664,-0.618,9.653,-0.112,0.082,0.03,42.15,-47.7,41.25,2046.0
1786377365.1572647,-1.908,-0.215,9.414,-0.068,-0.023,-0.004,42.15,-47.25,42.45,1985.0
1786377365.1572845,-1.647,-0.204,9.318,-0.127,-0.075,-0.068,42.9,-45.75,41.7,1985.0
1786377365.3626432,-1.573,-0.409,9.618,-0.152,-0.037,-0.017,40.8,-48.0,41.25,2016.0
1786377365.3626688,-1.53,-0.615,9.706,-0.15,0.059,0.013,41.55,-47.7,43.2,2020.0
1786377365.36268,-1.575,-0.934,9.783,-0.009,0.109,0.042,41.85,-46.95,42.45,2020.0
1786377365.5670745,-1.626,1.219,5.246,6.024,0.151,1.425,49.5,-39.0,51.0,2007.0
1786377365.567099,-1.915,3.452,4.334,6.311,-0.309,1.339,49.5,-35.85,56.25,2007.0
1786377365.5671103,-1.077,3.072,4.769,6.077,-0.308,1.18,48.0,-31.65,62.55,1969.0
1786377365.7732394,-1.659,8.018,8.638,-1.882,0.066,-0.424,49.8,-23.85,69.9,785.0
1786377365.7732635,-2.212,7.946,8.258,-2.056,0.042,-0.524,49.8,-25.05,68.4,785.0
1786377365.7732801,-2.073,7.319,7.803,-2.415,-0.078,-0.705,49.65,-26.4,69.6,937.0
1786377365.9779425,-2.078,0.965,8.794,-2.497,0.257,-0.675,43.35,-43.5,50.55,2224.0
1786377365.9779673,-1.796,0.67,9.268,-2.067,0.15,-0.616,43.5,-47.1,48.45,2224.0
1786377365.9779787,-2.203,0.026,9.079,-1.762,0.064,-0.616,41.55,-47.25,48.0,2112.0
1786377366.1818204,-1.765,-0.261,9.45,-0.073,-0.136,0.086,40.35,-48.45,44.25,2057.0
1786377366.181846,-1.86,-0.177,9.62,-0.075,-0.067,0.072,41.25,-48.3,44.1,2057.0
1786377366.1818573,-2.116,-0.268,9.78,0.016,-0.018,0.096,41.7,-48.3,44.1,2057.0
1786377366.3863108,-1.745,-1.381,9.412,0.581,0.129,0.253,40.35,-48.0,42.75,2054.0
1786377366.3863358,-2.028,-1.381,9.311,1.264,0.052,0.388,42.0,-47.1,45.15,2054.0
1786377366.386347,-2.107,-0.936,9.151,2.272,-0.117,0.641,45.0,-45.9,43.35,2054.0
1786377366.5911295,-0.249,9.979,8.305,-0.552,-0.134,-0.352,53.7,-15.6,68.85,885.0
1786377366.5911543,-0.218,8.871,8.447,-0.385,0.119,-0.082,53.55,-15.0,71.25,885.0
1786377366.5911658,-0.864,8.787,8.215,-0.379,0.222,0.029,53.1,-15.9,70.8,885.0
1786377366.7961965,-0.862,4.389,6.795,-3.166,0.007,-0.985,47.7,-34.35,62.85,2128.0
1786377366.79622,-0.496,3.139,7.269,-3.057,0.313,-0.849,47.1,-36.45,60.45,2128.0
1786377366.7962308,-1.918,3.041,7.903,-2.66,0.366,-0.684,46.35,-38.4,58.2,2128.0
1786377367.0009885,-1.499,1.183,9.749,-1.104,-0.093,-0.327,41.85,-46.2,49.05,2066.0
1786377367.0010133,-1.58,1.247,9.443,-1.253,0.0,-0.231,41.25,-44.85,47.4,2066.0
1786377367.0010247,-1.757,0.912,9.804,-1.372,0.077,-0.177,42.6,-45.75,48.3,2066.0
1786377367.2059727,-1.633,-2.902,9.586,-0.988,0.176,-0.039,38.85,-50.4,35.4,90.0
1786377367.2059984,-1.872,-3.055,9.395,-0.521,0.078,0.088,39.45,-49.8,33.75,90.0
1786377367.2060096,-1.973,-2.964,8.99,-0.058,-0.041,0.254,39.45,-50.55,33.45,90.0
1786377367.41067,-1.559,-2.725,9.457,2.928,-0.09,0.466,41.7,-47.85,39.3,56.0
1786377367.4106941,-1.353,-1.946,8.272,4.24,0.068,0.798,41.1,-46.95,43.2,2059.0
1786377367.4107056,-0.536,0.129,6.907,5.514,0.299,1.173,42.9,-46.95,45.3,2059.0
1786377367.6152546,-0.986,10.496,9.064,-1.181,0.054,-1.06,49.35,-22.5,70.8,2059.0
1786377367.6152902,-1.274,8.708,9.024,-1.644,0.112,-0.898,48.0,-23.85,72.0,844.0
1786377367.6153016,-1.559,7.381,9.096,-1.717,0.194,-0.599,46.95,-25.5,69.9,844.0
1786377367.821014,-1.437,3.938,7.81,-3.167,-0.014,-0.663,43.65,-38.4,57.45,1442.0
1786377367.821037,-1.867,3.292,8.183,-3.247,0.079,-0.75,44.1,-40.65,58.2,2181.0
1786377367.8210485,-1.472,2.646,8.353,-3.42,0.203,-0.816,43.35,-42.6,53.4,2181.0
1786377368.02466,-1.645,-1.607,8.619,-0.54,-0.179,0.006,40.95,-49.5,37.5,2030.0
1786377368.0246842,-1.757,-1.944,8.748,-0.324,-0.103,0.042,40.8,-49.2,36.6,92.0
1786377368.0246956,-1.796,-1.937,8.985,0.049,-0.126,0.105,40.2,-49.05,36.0,92.0
1786377368.2293782,-1.858,-1.604,8.696,0.132,-0.172,0.047,40.35,-49.65,37.95,92.0
1786377368.2294016,-1.736,-1.506,8.823,0.101,-0.162,0.009,40.35,-49.2,37.65,92.0
1786377368.2294133,-1.755,-1.568,9.014,0.009,-0.065,0.034,39.75,-48.6,37.5,125.0
1786377368.4363236,-1.882,-1.745,9.316,0.089,-0.053,0.068,40.8,-49.2,36.9,125.0
1786377368.436348,-2.071,-1.578,9.409,0.208,-0.076,0.056,40.05,-48.9,36.6,125.0
1786377368.436359,-1.942,-1.46,9.419,0.192,-0.115,0.021,40.5,-49.05,37.5,125.0
1786377368.6394863,-1.125,8.674,8.205,-0.708,0.056,-0.088,46.65,-20.55,71.1,944.0
1786377368.639512,-1.772,8.839,7.673,-1.294,-0.043,-0.128,47.85,-20.55,70.8,944.0
1786377368.8445246,-1.008,-1.077,9.471,-1.866,-0.026,-0.235,39.75,-49.05,44.4,2067.0
1786377368.8445477,-1.393,-1.398,9.531,-1.18,0.002,-0.109,38.7,-48.6,42.6,2067.0
1786377368.8445592,-1.36,-1.374,9.55,-0.552,-0.001,0.051,39.0,-49.05,40.8,2067.0
1786377369.0488698,-1.776,-0.929,9.543,-0.001,0.011,-0.001,41.25,-49.05,40.05,1935.0
1786377369.0488956,-1.753,-0.915,9.586,-0.169,-0.031,-0.056,39.45,-48.3,43.35,1935.0
1786377369.0489068,-1.616,-1.039,9.799,-0.179,0.023,-0.021,40.8,-49.65,42.0,1935.0
1786377369.2542646,-1.709,-2.21,9.464,2.676,0.347,0.458,44.1,-46.2,41.25,2003.0
1786377369.254299,-1.975,-2.361,8.832,4.324,0.382,0.848,43.65,-45.3,41.7,2003.0
1786377369.2543104,-1.223,-0.558,6.919,5.991,0.317,1.211,47.7,-42.15,46.65,2003.0
1786377369.4585645,-0.694,9.476,8.181,-0.771,-0.347,-1.262,50.4,-14.1,71.55,998.0
1786377369.4585898,-1.125,8.406,8.253,-0.409,0.091,-0.669,50.25,-15.0,67.95,998.0
1786377369.4586012,-1.803,7.831,7.851,-0.062,0.341,-0.015,49.8,-15.75,69.15,998.0
1786377369.664587,-1.398,6.517,6.155,-3.059,-0.122,-0.341,46.95,-27.45,65.85,865.0
1786377369.6646113,-1.846,5.21,6.577,-3.243,-0.074,-0.34,46.95,-28.2,65.85,1587.0
1786377369.6646218,-1.793,5.327,6.948,-3.458,-0.043,-0.299,45.9,-32.25,63.75,1587.0
1786377369.8741508,-1.53,-1.614,9.586,-1.245,-0.045,-0.059,40.5,-47.85,40.05,1994.0
1786377369.8741765,-1.271,-2.133,9.33,-0.726,-0.015,0.088,40.5,-48.6,37.8,1994.0
1786377369.8741872,-1.7,-1.999,8.842,-0.165,-0.031,0.275,40.95,-47.85,37.5,1994.0
1786377370.074438,-1.59,-0.5,10.056,0.115,-0.107,0.014,41.1,-47.7,40.65,1474.0
1786377370.0744724,-1.427,-0.728,10.142,-0.042,-0.055,0.044,42.45,-47.55,40.35,1474.0
1786377370.0744789,-1.379,-0.888,10.199,-0.096,0.008,0.079,40.5,-47.55,40.35,1932.0
1786377370.2776628,-1.425,-1.109,9.536,0.006,0.038,0.011,41.7,-47.85,40.35,1947.0
1786377370.2776866,-1.444,-1.056,9.567,0.1,-0.003,0.012,42.45,-47.85,40.05,1947.0
1786377370.2776978,-1.417,-0.857,9.438,0.084,-0.093,-0.001,42.6,-49.2,39.45,1947.0
1786377370.4833412,-1.331,-1.286,9.452,-0.102,0.069,-0.007,41.55,-48.0,41.25,1980.0
1786377370.4833672,-1.496,-1.286,9.531,-0.053,0.045,-0.021,44.1,-47.25,39.9,1980.0
1786377370.4833786,-1.726,-1.233,9.656,-0.035,0.022,-0.012,42.0,-46.65,39.3,1980.0
1786377370.687884,-1.513,-0.795,9.108,0.083,-0.074,0.112,44.1,-47.7,40.95,1998.0
1786377370.6879086,-1.343,-0.776,9.246,0.128,-0.162,0.108,42.9,-46.5,40.65,1998.0
1786377370.68792,-1.331,-0.675,9.318,0.194,-0.179,0.112,44.1,-48.45,40.95,1998.0
1786377370.8925722,-0.946,-2.172,10.235,1.036,0.06,-0.097,43.2,-45.15,42.3,1940.0
1786377370.892597,-1.676,-1.875,9.395,2.673,0.027,-0.357,43.35,-45.3,41.7,1940.0
1786377370.892608,-2.236,-0.007,8.157,4.152,0.068,-0.247,45.75,-41.25,43.05,1940.0
1786377371.0974612,-0.915,10.494,6.895,1.996,0.275,-0.124,47.85,-19.8,71.1,988.0
1786377371.0974889,-1.329,11.394,7.439,0.472,0.004,-0.65,46.35,-16.8,71.1,988.0
1786377371.0974998,-1.638,10.7,7.784,-0.144,-0.302,-0.811,47.25,-16.95,71.25,988.0
1786377371.302316,-1.958,5.871,7.046,-3.576,-0.049,-0.174,46.65,-27.9,64.8,1064.0
1786377371.3023424,-2.485,4.999,7.082,-3.935,-0.098,-0.276,45.15,-30.6,65.55,1064.0
1786377371.3023536,-1.863,4.501,7.051,-3.941,-0.124,-0.162,43.95,-35.55,62.1,1064.0
1786377371.5072563,-1.745,-0.795,9.519,-0.852,-0.043,-0.085,41.25,-46.35,43.35,2048.0
1786377371.5072913,-1.554,-0.855,9.471,-0.704,0.009,0.01,43.2,-46.65,41.85,2048.0
1786377371.507303,-1.724,-0.749,9.244,-0.62,-0.056,0.041,42.15,-47.7,42.45,2015.0
1786377371.7117274,-1.532,-1.073,9.797,-0.581,0.086,-0.044,40.8,-47.25,39.45,1947.0
1786377371.7117524,-1.798,-1.173,9.912,-0.686,0.043,-0.119,40.35,-48.9,37.2,1783.0
1786377371.7117636,-1.635,-1.465,9.948,-0.761,0.038,-0.104,40.95,-49.05,37.8,1783.0
1786377371.9167783,-2.15,-4.219,9.428,2.817,-0.536,0.2,43.65,-45.75,31.35,77.0
1786377371.916804,-1.805,-3.833,8.897,4.651,-0.61,0.622,47.7,-42.45,33.75,1991.0
1786377371.9168153,-0.108,-3.472,6.778,6.637,-0.357,0.926,49.05,-40.5,37.8,1991.0
1786377372.121278,-1.305,11.195,8.459,0.163,0.194,-0.762,48.15,-19.8,68.55,1843.0
